id,sex,age,session,block,trial,stim_type,stim,resp,acc,rt,difficult,word
1,1,21,1,1,5,3,Bamahun,0,1,0.847,1,2
1,1,21,1,1,6,3,Wernir,0,1,0.654,1,2
1,1,21,1,1,7,4,Wsboaä,0,1,0.647,2,2
1,1,21,1,1,8,2,Leiste,1,1,0.543,1,1
1,1,21,1,1,9,1,dauern,1,1,0.591,2,1
1,1,21,1,1,10,1,Ereignis,1,1,0.783,2,1
1,1,21,1,1,11,4,Brgeht,0,1,0.711,2,2
1,1,21,1,1,12,2,Nomade,1,1,0.934,1,1
1,1,21,1,1,13,2,beseelt,0,0,0.687,1,1
1,1,21,1,1,14,1,Kandidat,1,1,1.365,2,1
1,1,21,1,1,15,2,bodenlos,1,1,0.614,1,1
1,1,21,1,1,16,3,orkendun,0,1,1.055,1,2
1,1,21,1,1,17,1,Steuer,1,1,0.656,2,1
1,1,21,1,1,18,4,Trlttcc,0,1,0.664,2,2
1,1,21,1,1,19,2,surren,1,1,0.815,1,1
1,1,21,1,1,20,4,helah,0,1,0.871,2,2
1,1,21,1,1,21,4,Slcali,0,1,0.728,2,2
1,1,21,1,1,22,4,gyucdt,0,1,0.645,2,2
1,1,21,1,1,23,3,Fasiin,0,1,0.907,1,2
1,1,21,1,1,24,3,Frest,0,1,1.072,1,2
1,1,21,1,1,25,4,Slarerc,0,1,0.71,2,2
1,1,21,1,1,26,3,Gefellin,0,1,2.695,1,2
1,1,21,1,1,27,2,hierin,1,1,1.167,1,1
1,1,21,1,1,28,3,Gilonk,0,1,0.889,1,2
1,1,21,1,1,29,2,Strip,1,1,1.023,1,1
1,1,21,1,1,30,3,Rikord,0,1,0.871,1,2
1,1,21,1,1,31,3,Kleenbas,0,1,1.15,1,2
1,1,21,1,1,32,1,gering,1,1,0.679,2,1
1,1,21,1,1,33,3,vorbecht,0,1,1.272,1,2
1,1,21,1,1,34,3,gufunden,0,1,1.007,1,2
1,1,21,1,1,35,1,Union,1,1,0.663,2,1
1,1,21,1,1,36,1,Technik,1,1,0.705,2,1
1,1,21,1,1,37,3,Ebminn,0,1,0.801,1,2
1,1,21,1,1,38,1,Stelle,1,1,0.64,2,1
1,1,21,1,1,39,2,Baier,0,0,1.28,1,1
1,1,21,1,1,40,4,Pirsur,0,1,0.776,2,2
1,1,21,1,1,41,3,bawirtun,0,1,1.032,1,2
1,1,21,1,1,42,2,erbost,1,1,0.896,1,1
1,1,21,1,1,43,2,gleich,1,1,0.664,1,1
1,1,21,1,1,44,4,Saatäeer,0,1,1.008,2,2
1,1,21,1,1,45,3,wenkun,0,1,0.799,1,2
1,1,21,1,1,46,4,Reodtne,0,1,0.617,2,2
1,1,21,1,1,47,4,Rnlumrr,0,1,0.672,2,2
1,1,21,1,1,48,1,fangen,1,1,0.743,2,1
1,1,21,1,1,49,3,Andlager,0,1,1.496,1,2
1,1,21,1,1,50,1,Licht,1,1,1.03,2,1
1,1,21,1,1,51,2,längs,1,1,0.758,1,1
1,1,21,1,1,52,4,Ehfiaag,0,1,0.768,2,2
1,1,21,1,1,53,2,Trägheit,1,1,0.865,1,1
1,1,21,1,1,54,2,paddeln,1,1,0.872,1,1
1,1,21,1,1,55,3,Sognang,0,1,0.927,1,2
1,1,21,1,1,56,2,Dolomit,1,1,0.825,1,1
1,1,21,1,1,57,3,Schieße,1,0,0.712,1,2
1,1,21,1,1,58,1,Absatz,1,1,0.711,2,1
1,1,21,1,1,59,2,Südküste,1,1,0.679,1,1
1,1,21,1,1,60,4,varker,0,1,0.696,2,2
1,1,21,1,1,61,1,nochmals,1,1,0.792,2,1
1,1,21,1,1,62,1,Kanton,1,1,0.703,2,1
1,1,21,1,1,63,1,beraten,1,1,0.663,2,1
1,1,21,1,1,64,3,bluteg,0,1,1.159,1,2
1,1,21,1,1,65,2,Gesell,1,1,0.647,1,1
1,1,21,1,1,66,3,Kunigin,0,1,0.928,1,2
1,1,21,1,1,67,4,Vrogwn,0,1,0.792,2,2
1,1,21,1,1,68,3,Rimiki,0,1,1.32,1,2
1,1,21,1,1,69,3,Besur,0,1,0.792,1,2
1,1,21,1,1,70,2,mulmig,1,1,0.727,1,1
1,1,21,1,1,71,4,Gegyn,0,1,1.536,2,2
1,1,21,1,1,72,4,kiscndte,0,1,0.895,2,2
1,1,21,1,1,73,2,Köpfchen,1,1,0.736,1,1
1,1,21,1,1,74,1,leiten,1,1,0.687,2,1
1,1,21,1,1,75,4,Gaorc,0,1,0.88,2,2
1,1,21,1,1,76,4,ailngen,0,1,0.928,2,2
1,1,21,1,1,77,1,Person,1,1,0.592,2,1
1,1,21,1,1,78,4,Soäfhb,0,1,0.711,2,2
1,1,21,1,1,79,3,Duzent,1,0,4.439,1,2
1,1,21,1,1,80,3,billun,0,1,0.639,1,2
1,1,21,1,1,81,4,Mupagi,0,1,0.967,2,2
1,1,21,1,1,82,1,Anschlag,1,1,1.239,2,1
1,1,21,1,1,83,2,fächern,1,1,0.695,1,1
1,1,21,1,1,84,1,erlauben,1,1,0.518,2,1
1,1,21,1,1,85,2,Dezernat,1,1,1.087,1,1
1,1,21,1,1,86,1,Flucht,1,1,0.639,2,1
1,1,21,1,1,87,2,Echtzeit,1,1,0.751,1,1
1,1,21,1,1,88,2,Barbar,1,1,0.839,1,1
1,1,21,1,1,89,1,Bilanz,1,1,0.591,2,1
1,1,21,1,1,90,4,Gasbsg,0,1,0.703,2,2
1,1,21,1,1,91,1,Markt,1,1,0.534,2,1
1,1,21,1,1,92,3,Helzor,0,1,1.056,1,2
1,1,21,1,1,93,1,Sprache,1,1,0.679,2,1
1,1,21,1,1,94,1,stärken,1,1,0.583,2,1
1,1,21,1,1,95,4,dnhbace,0,1,0.591,2,2
1,1,21,1,1,96,1,erfolgen,1,1,0.631,2,1
1,1,21,1,1,97,4,Motiig,0,1,0.759,2,2
1,1,21,1,1,98,2,Erdapfel,1,1,0.855,1,1
1,1,21,1,1,99,4,zuthtc,0,1,0.614,2,2
1,1,21,1,1,100,1,erweisen,1,1,0.641,2,1
1,1,21,1,1,101,4,uomne,0,1,0.703,2,2
1,1,21,1,1,102,2,walken,1,1,0.72,1,1
1,1,21,1,1,103,2,Surfen,1,1,0.704,1,1
1,1,21,1,1,104,3,Villo,0,1,0.929,1,2
1,1,21,1,2,5,3,Ioslusar,0,1,0.879,1,2
1,1,21,1,2,6,1,danken,1,1,0.575,2,1
1,1,21,1,2,7,2,Arrest,1,1,0.711,1,1
1,1,21,1,2,8,1,aktuell,1,1,0.711,2,1
1,1,21,1,2,9,1,Aussicht,1,1,0.591,2,1
1,1,21,1,2,10,2,höfisch,1,1,0.823,1,1
1,1,21,1,2,11,1,Täter,1,1,0.535,2,1
1,1,21,1,2,12,3,horob,0,1,0.823,1,2
1,1,21,1,2,13,2,Slawe,1,1,0.943,1,1
1,1,21,1,2,14,4,Sbewb,0,1,0.751,2,2
1,1,21,1,2,15,2,fidel,1,1,0.831,1,1
1,1,21,1,2,16,4,Gcaait,0,1,0.718,2,2
1,1,21,1,2,17,1,Turnier,1,1,0.655,2,1
1,1,21,1,2,18,2,willens,1,1,0.88,1,1
1,1,21,1,2,19,1,Wahrheit,1,1,0.607,2,1
1,1,21,1,2,20,2,Gemach,1,1,0.935,1,1
1,1,21,1,2,21,4,gogro,0,1,0.768,2,2
1,1,21,1,2,22,1,melden,1,1,0.536,2,1
1,1,21,1,2,23,3,hiltlis,0,1,1.201,1,2
1,1,21,1,2,24,3,Mubbing,0,1,0.952,1,2
1,1,21,1,2,25,4,Eonehnu,0,1,1.039,2,2
1,1,21,1,2,26,2,gelöscht,1,1,0.672,1,1
1,1,21,1,2,27,3,Sexufan,0,1,1.127,1,2
1,1,21,1,2,28,2,postum,1,1,2.312,1,1
1,1,21,1,2,29,4,Mnudonn,0,1,0.567,2,2
1,1,21,1,2,30,2,Glaser,1,1,0.847,1,1
1,1,21,1,2,31,1,Sturm,1,1,0.51,2,1
1,1,21,1,2,32,3,obsaats,0,1,0.63,1,2
1,1,21,1,2,33,4,rensmed,0,1,0.766,2,2
1,1,21,1,2,34,3,Phantam,0,1,0.871,1,2
1,1,21,1,2,35,3,prissin,0,1,0.653,1,2
1,1,21,1,2,36,1,Auftakt,1,1,0.759,2,1
1,1,21,1,2,37,1,Schritt,1,1,0.807,2,1
1,1,21,1,2,38,4,Haeakea,0,1,0.575,2,2
1,1,21,1,2,39,1,Ausbau,1,1,0.727,2,1
1,1,21,1,2,40,2,Hybride,1,1,0.759,1,1
1,1,21,1,2,41,4,aodrua,0,1,0.558,2,2
1,1,21,1,2,42,4,Bekimk,0,1,0.566,2,2
1,1,21,1,2,43,4,Amlsllt,0,1,0.589,2,2
1,1,21,1,2,44,1,hundert,1,1,0.646,2,1
1,1,21,1,2,45,3,Mitluod,0,1,0.766,1,2
1,1,21,1,2,46,3,Fasch,0,1,0.694,1,2
1,1,21,1,2,47,3,Dilto,1,0,1.135,1,2
1,1,21,1,2,48,1,Pflanze,1,1,0.671,2,1
1,1,21,1,2,49,2,Wildbahn,1,1,0.598,1,1
1,1,21,1,2,50,3,besonnon,0,1,1.263,1,2
1,1,21,1,2,51,3,Flugga,0,1,0.736,1,2
1,1,21,1,2,52,3,Ombolinz,0,1,0.577,1,2
1,1,21,1,2,53,2,Rinde,1,1,0.543,1,1
1,1,21,1,2,54,2,Schimmer,1,1,0.718,1,1
1,1,21,1,2,55,2,Domherr,1,1,0.877,1,1
1,1,21,1,2,56,4,Gusrtc,0,1,0.598,2,2
1,1,21,1,2,57,1,Leute,1,1,0.542,2,1
1,1,21,1,2,58,4,bietanl,0,1,0.589,2,2
1,1,21,1,2,59,4,Ailnsui,0,1,0.726,2,2
1,1,21,1,2,60,4,teukpel,0,1,0.646,2,2
1,1,21,1,2,61,2,Unding,1,1,1.006,1,1
1,1,21,1,2,62,4,basgl,0,1,0.598,2,2
1,1,21,1,2,63,1,Versuch,1,1,0.574,2,1
1,1,21,1,2,64,3,Pramour,0,1,0.894,1,2
1,1,21,1,2,65,1,Bauer,1,1,1.189,2,1
1,1,21,1,2,66,4,Salor,0,1,0.88,2,2
1,1,21,1,2,67,4,Soaevorb,0,1,0.608,2,2
1,1,21,1,2,68,3,Guseng,0,1,0.942,1,2
1,1,21,1,2,69,2,bummeln,1,1,0.583,1,1
1,1,21,1,2,70,2,einatmen,1,1,0.702,1,1
1,1,21,1,2,71,2,Uhrwerk,1,1,0.67,1,1
1,1,21,1,2,72,1,Internet,1,1,0.526,2,1
1,1,21,1,2,73,1,richtig,1,1,0.478,2,1
1,1,21,1,2,74,2,sumpfig,1,1,0.901,1,1
1,1,21,1,2,75,2,zimmern,1,1,1.887,1,1
1,1,21,1,2,76,4,Loiofl,0,1,0.687,2,2
1,1,21,1,2,77,2,seriell,0,0,2.111,1,1
1,1,21,1,2,78,3,Riemeng,0,1,1.062,1,2
1,1,21,1,2,79,3,plaato,0,1,0.615,1,2
1,1,21,1,2,80,1,Direktor,1,1,0.574,2,1
1,1,21,1,2,81,3,anganihm,0,1,0.677,1,2
1,1,21,1,2,82,4,Piiod,0,1,0.614,2,2
1,1,21,1,2,83,2,hellwach,1,1,0.711,1,1
1,1,21,1,2,84,4,wuniwe,0,1,0.782,2,2
1,1,21,1,2,85,1,senken,1,1,0.629,2,1
1,1,21,1,2,86,1,Beratung,1,1,0.645,2,1
1,1,21,1,2,87,4,Remearl,0,1,0.927,2,2
1,1,21,1,2,88,4,Grgxeo,0,1,0.71,2,2
1,1,21,1,2,89,3,wihllis,0,1,0.526,1,2
1,1,21,1,2,90,1,Herbst,1,1,0.533,2,1
1,1,21,1,2,91,1,günstig,1,1,0.933,2,1
1,1,21,1,2,92,4,Hoknmt,0,1,0.749,2,2
1,1,21,1,2,93,3,Ruetar,0,1,0.591,1,2
1,1,21,1,2,94,3,nahron,0,1,0.806,1,2
1,1,21,1,2,95,4,Thhfr,0,1,0.502,2,2
1,1,21,1,2,96,2,geartet,1,1,0.751,1,1
1,1,21,1,2,97,3,Ondrunde,0,1,0.814,1,2
1,1,21,1,2,98,1,zurzeit,1,1,0.694,2,1
1,1,21,1,2,99,1,Mädchen,1,1,1.71,2,1
1,1,21,1,2,100,4,Zareeee,0,1,0.551,2,2
1,1,21,1,2,101,2,reuen,0,0,1.645,1,1
1,1,21,1,2,102,3,nobst,0,1,1.358,1,2
1,1,21,1,2,103,3,qeollin,0,1,0.914,1,2
1,1,21,1,2,104,2,Betreff,1,1,0.534,1,1
1,1,21,1,3,5,3,Suumunn,0,1,0.678,1,2
1,1,21,1,3,6,1,schützen,1,1,0.607,2,1
1,1,21,1,3,7,2,lumpen,1,1,1.471,1,1
1,1,21,1,3,8,2,Klettern,1,1,1.022,1,1
1,1,21,1,3,9,1,unten,1,1,0.775,2,1
1,1,21,1,3,10,3,Kachen,0,1,1.015,1,2
1,1,21,1,3,11,4,Benfh,0,1,0.719,2,2
1,1,21,1,3,12,2,beige,1,1,0.781,1,1
1,1,21,1,3,13,3,Taouring,0,1,0.71,1,2
1,1,21,1,3,14,3,Zeutplin,0,1,0.701,1,2
1,1,21,1,3,15,3,Fachur,0,1,0.805,1,2
1,1,21,1,3,16,4,Sarett,0,1,0.734,2,2
1,1,21,1,3,17,3,Trugek,0,1,0.654,1,2
1,1,21,1,3,18,4,Fitupkr,0,1,0.838,2,2
1,1,21,1,3,19,1,nötig,1,1,0.574,2,1
1,1,21,1,3,20,2,Gelbe,1,1,0.893,1,1
1,1,21,1,3,21,3,Murtyrur,0,1,0.59,1,2
1,1,21,1,3,22,3,blouch,0,1,0.719,1,2
1,1,21,1,3,23,1,Schlag,1,1,0.623,2,1
1,1,21,1,3,24,4,Aasdha,0,1,0.542,2,2
1,1,21,1,3,25,1,Grenze,1,1,0.59,2,1
1,1,21,1,3,26,4,tnsde,0,1,0.558,2,2
1,1,21,1,3,27,2,Syrer,1,1,0.703,1,1
1,1,21,1,3,28,2,Bleiche,1,1,0.781,1,1
1,1,21,1,3,29,1,billig,1,1,0.574,2,1
1,1,21,1,3,30,1,täglich,1,1,0.501,2,1
1,1,21,1,3,31,1,Traum,1,1,0.485,2,1
1,1,21,1,3,32,2,Färber,1,1,0.508,1,1
1,1,21,1,3,33,1,Spannung,1,1,0.535,2,1
1,1,21,1,3,34,1,Börse,1,1,0.494,2,1
1,1,21,1,3,35,2,Präfekt,0,0,1.582,1,1
1,1,21,1,3,36,2,Exodus,1,1,0.719,1,1
1,1,21,1,3,37,1,zudem,1,1,0.599,2,1
1,1,21,1,3,38,3,Icryl,0,1,1.151,1,2
1,1,21,1,3,39,2,Arsch,1,1,0.598,1,1
1,1,21,1,3,40,3,Bostund,0,1,0.982,1,2
1,1,21,1,3,41,4,Qtlma,0,1,0.602,2,2
1,1,21,1,3,42,2,Ächtung,0,0,1.84,1,1
1,1,21,1,3,43,1,Personal,1,1,0.911,2,1
1,1,21,1,3,44,3,Blumo,0,1,0.71,1,2
1,1,21,1,3,45,3,Hellor,0,1,0.799,1,2
1,1,21,1,3,46,4,Krtai,0,1,0.566,2,2
1,1,21,1,3,47,2,Sehne,1,1,0.605,1,1
1,1,21,1,3,48,4,Zahpehhn,0,1,0.83,2,2
1,1,21,1,3,49,4,daadc,0,1,0.534,2,2
1,1,21,1,3,50,4,Moxäfc,0,1,0.742,2,2
1,1,21,1,3,51,3,tuurosch,0,1,0.671,1,2
1,1,21,1,3,52,2,Lerche,1,1,0.734,1,1
1,1,21,1,3,53,1,zurück,1,1,0.702,2,1
1,1,21,1,3,54,2,gehegt,1,1,1.591,1,1
1,1,21,1,3,55,2,Lügner,1,1,0.605,1,1
1,1,21,1,3,56,2,knallrot,1,1,0.559,1,1
1,1,21,1,3,57,4,pitdlre,0,1,0.655,2,2
1,1,21,1,3,58,3,Beozeet,0,1,0.677,1,2
1,1,21,1,3,59,4,Dudpclr,0,1,0.534,2,2
1,1,21,1,3,60,1,wirken,1,1,0.629,2,1
1,1,21,1,3,61,2,Brillanz,1,1,1.271,1,1
1,1,21,1,3,62,2,Zweier,1,1,0.679,1,1
1,1,21,1,3,63,3,Arstir,0,1,0.726,1,2
1,1,21,1,3,64,2,Schwinge,1,1,0.727,1,1
1,1,21,1,3,65,1,heutig,1,1,0.774,2,1
1,1,21,1,3,66,1,drücken,1,1,0.486,2,1
1,1,21,1,3,67,2,operiert,1,1,0.775,1,1
1,1,21,1,3,68,3,Miiti,0,1,0.767,1,2
1,1,21,1,3,69,1,Änderung,1,1,0.566,2,1
1,1,21,1,3,70,4,eeaeau,0,1,0.566,2,2
1,1,21,1,3,71,1,Dialog,1,1,0.566,2,1
1,1,21,1,3,72,2,Kegler,1,1,0.847,1,1
1,1,21,1,3,73,3,uansohan,0,1,0.566,1,2
1,1,21,1,3,74,3,Kanzol,0,1,0.741,1,2
1,1,21,1,3,75,4,uabrzsa,0,1,0.558,2,2
1,1,21,1,3,76,3,Fandas,0,1,0.724,1,2
1,1,21,1,3,77,3,Zoigan,0,1,0.622,1,2
1,1,21,1,3,78,1,erzählen,1,1,0.655,2,1
1,1,21,1,3,79,1,Aufstieg,1,1,0.967,2,1
1,1,21,1,3,80,2,Essig,1,1,0.51,1,1
1,1,21,1,3,81,4,Eauipb,0,1,0.574,2,2
1,1,21,1,3,82,4,Jafsudl,0,1,0.525,2,2
1,1,21,1,3,83,4,Hrtclii,0,1,0.51,2,2
1,1,21,1,3,84,1,Februar,1,1,0.598,2,1
1,1,21,1,3,85,1,klingen,1,1,0.551,2,1
1,1,21,1,3,86,4,Biiska,0,1,0.525,2,2
1,1,21,1,3,87,2,dämmen,1,1,0.582,1,1
1,1,21,1,3,88,3,virielig,0,1,0.631,1,2
1,1,21,1,3,89,4,Dizrfeit,0,1,0.582,2,2
1,1,21,1,3,90,4,Tvrmsoei,0,1,0.557,2,2
1,1,21,1,3,91,4,Meübleo,0,1,0.493,2,2
1,1,21,1,3,92,4,Ptniw,0,1,0.47,2,2
1,1,21,1,3,93,3,Traff,0,1,1.599,1,2
1,1,21,1,3,94,3,baxon,0,1,0.838,1,2
1,1,21,1,3,95,1,wählen,1,1,0.558,2,1
1,1,21,1,3,96,4,Tiibt,0,1,0.566,2,2
1,1,21,1,3,97,3,Honsaot,0,1,1.014,1,2
1,1,21,1,3,98,1,hinaus,1,1,0.711,2,1
1,1,21,1,3,99,2,Markttag,1,1,0.933,1,1
1,1,21,1,3,100,3,Hirde,0,1,1.397,1,2
1,1,21,1,3,101,1,Senat,1,1,0.758,2,1
1,1,21,1,3,102,4,Snrie,0,1,0.614,2,2
1,1,21,1,3,103,2,rumoren,1,1,0.902,1,1
1,1,21,1,3,104,4,Weaue,0,1,0.551,2,2
1,1,21,1,4,5,1,Betrieb,1,1,0.511,2,1
1,1,21,1,4,6,3,Trock,0,1,1.079,1,2
1,1,21,1,4,7,2,Demut,1,1,0.686,1,1
1,1,21,1,4,8,2,jobben,1,1,0.791,1,1
1,1,21,1,4,9,4,Sitso,0,1,0.757,2,2
1,1,21,1,4,10,4,Aewiae,0,1,0.59,2,2
1,1,21,1,4,11,4,Hüelfs,0,1,0.606,2,2
1,1,21,1,4,12,4,Rnkui,0,1,0.471,2,2
1,1,21,1,4,13,2,Barde,1,1,1.549,1,1
1,1,21,1,4,14,1,zweimal,1,1,0.55,2,1
1,1,21,1,4,15,2,Eruption,0,0,3.869,1,1
1,1,21,1,4,16,4,hruliua,0,1,0.622,2,2
1,1,21,1,4,17,2,Vorraum,1,1,1.071,1,1
1,1,21,1,4,18,2,Serenade,1,1,0.823,1,1
1,1,21,1,4,19,1,römisch,1,1,0.63,2,1
1,1,21,1,4,20,3,buziugin,0,1,0.647,1,2
1,1,21,1,4,21,3,Oppirat,0,1,1.069,1,2
1,1,21,1,4,22,4,Tsetwh,0,1,0.526,2,2
1,1,21,1,4,23,1,sinnvoll,1,1,0.757,2,1
1,1,21,1,4,24,1,Anspruch,1,1,0.541,2,1
1,1,21,1,4,25,1,verlegen,1,1,0.654,2,1
1,1,21,1,4,26,1,Liebe,1,1,0.511,2,1
1,1,21,1,4,27,1,örtlich,1,1,0.558,2,1
1,1,21,1,4,28,2,tosen,1,1,1.023,1,1
1,1,21,1,4,29,3,postoril,0,1,0.997,1,2
1,1,21,1,4,30,4,Maunoet,0,1,0.838,2,2
1,1,21,1,4,31,1,jetzig,1,1,0.895,2,1
1,1,21,1,4,32,4,Ktiio,0,1,0.543,2,2
1,1,21,1,4,33,1,Fluss,1,1,0.494,2,1
1,1,21,1,4,34,3,ratlach,0,1,0.782,1,2
1,1,21,1,4,35,1,Partei,1,1,0.591,2,1
1,1,21,1,4,36,2,Klause,0,0,1.974,1,1
1,1,21,1,4,37,2,kichern,1,1,0.567,1,1
1,1,21,1,4,38,1,zuerst,1,1,0.558,2,1
1,1,21,1,4,39,4,Rnlihul,0,1,0.574,2,2
1,1,21,1,4,40,4,Mtäofu,0,1,0.598,2,2
1,1,21,1,4,41,3,Wormo,0,1,0.67,1,2
1,1,21,1,4,42,3,hackan,0,1,0.903,1,2
1,1,21,1,4,43,2,bankrott,1,1,0.814,1,1
1,1,21,1,4,44,3,Banben,0,1,0.798,1,2
1,1,21,1,4,45,2,Liedtext,1,1,0.719,1,1
1,1,21,1,4,46,2,Pfütze,1,1,0.639,1,1
1,1,21,1,4,47,4,zaecaln,0,1,0.678,2,2
1,1,21,1,4,48,3,Duckeng,0,1,0.991,1,2
1,1,21,1,4,49,4,Köögiehr,0,1,0.742,2,2
1,1,21,1,4,50,2,Seeweg,1,1,0.695,1,1
1,1,21,1,4,51,2,indes,1,1,1.407,1,1
1,1,21,1,4,52,3,Forstin,0,1,1.565,1,2
1,1,21,1,4,53,1,Gesicht,1,1,0.479,2,1
1,1,21,1,4,54,1,einzeln,1,1,0.669,2,1
1,1,21,1,4,55,3,Kropa,0,1,0.87,1,2
1,1,21,1,4,56,4,ieuaa,0,1,0.511,2,2
1,1,21,1,4,57,3,tadollos,0,1,1.158,1,2
1,1,21,1,4,58,1,üblich,1,1,0.654,2,1
1,1,21,1,4,59,1,durch,1,1,0.622,2,1
1,1,21,1,4,60,3,Jarir,0,1,0.559,1,2
1,1,21,1,4,61,2,erbosen,1,1,0.734,1,1
1,1,21,1,4,62,3,Harong,0,1,0.821,1,2
1,1,21,1,4,63,2,achtlos,1,1,0.623,1,1
1,1,21,1,4,64,3,Qeate,0,1,0.565,1,2
1,1,21,1,4,65,3,Ponzar,0,1,0.718,1,2
1,1,21,1,4,66,3,sporsem,0,1,0.758,1,2
1,1,21,1,4,67,3,Klaant,0,1,0.519,1,2
1,1,21,1,4,68,1,behalten,1,1,0.583,2,1
1,1,21,1,4,69,4,nalnooa,0,1,0.494,2,2
1,1,21,1,4,70,4,Dooßt,0,1,0.63,2,2
1,1,21,1,4,71,2,Gerste,1,1,0.75,1,1
1,1,21,1,4,72,1,Sekunde,1,1,0.494,2,1
1,1,21,1,4,73,2,Fetzen,1,1,0.854,1,1
1,1,21,1,4,74,4,Becmea,0,1,0.543,2,2
1,1,21,1,4,75,3,Gahstoeg,0,1,0.558,1,2
1,1,21,1,4,76,4,Tohic,0,1,0.686,2,2
1,1,21,1,4,77,4,Piiitl,0,1,0.598,2,2
1,1,21,1,4,78,4,Oeretcm,0,1,0.533,2,2
1,1,21,1,4,79,1,viert,1,1,1.91,2,1
1,1,21,1,4,80,2,Hacke,1,1,1.167,1,1
1,1,21,1,4,81,1,denken,1,1,0.598,2,1
1,1,21,1,4,82,4,Räuoese,0,1,0.606,2,2
1,1,21,1,4,83,2,Träumer,1,1,0.558,1,1
1,1,21,1,4,84,3,gotrist,0,1,0.583,1,2
1,1,21,1,4,85,1,früher,1,1,0.533,2,1
1,1,21,1,4,86,2,Trabant,1,1,0.734,1,1
1,1,21,1,4,87,2,löchrig,1,1,0.654,1,1
1,1,21,1,4,88,2,Karpfen,1,1,0.566,1,1
1,1,21,1,4,89,3,Sunitor,0,1,1.015,1,2
1,1,21,1,4,90,3,Hordwara,0,1,0.614,1,2
1,1,21,1,4,91,1,Schluss,1,1,0.54,2,1
1,1,21,1,4,92,3,Pongein,0,1,0.783,1,2
1,1,21,1,4,93,3,Fatur,0,1,0.838,1,2
1,1,21,1,4,94,4,Wluheb,0,1,0.582,2,2
1,1,21,1,4,95,4,Luifi,0,1,0.51,2,2
1,1,21,1,4,96,4,Krsleeg,0,1,0.566,2,2
1,1,21,1,4,97,3,Fassul,0,1,1.03,1,2
1,1,21,1,4,98,4,Soszwci,0,1,0.503,2,2
1,1,21,1,4,99,4,leelee,0,1,0.703,2,2
1,1,21,1,4,100,2,Zeitlupe,1,1,0.614,1,1
1,1,21,1,4,101,1,zuvor,1,1,0.646,2,1
1,1,21,1,4,102,2,Longe,1,1,1.302,1,1
1,1,21,1,4,103,1,Verdacht,1,1,2.007,2,1
1,1,21,1,4,104,1,Fahrt,1,1,1.382,2,1
1,1,21,1,5,5,3,Schitto,0,1,0.67,1,2
1,1,21,1,5,6,4,Geuuer,0,1,0.551,2,2
1,1,21,1,5,7,1,einladen,1,1,0.535,2,1
1,1,21,1,5,8,1,Kamera,1,1,0.535,2,1
1,1,21,1,5,9,1,Motiv,1,1,0.534,2,1
1,1,21,1,5,10,4,Tustlr,0,1,0.557,2,2
1,1,21,1,5,11,2,Kerker,1,1,0.806,1,1
1,1,21,1,5,12,1,liefern,1,1,0.511,2,1
1,1,21,1,5,13,4,Maoeubn,0,1,0.591,2,2
1,1,21,1,5,14,2,Maibaum,1,1,0.607,1,1
1,1,21,1,5,15,1,direkt,1,1,0.478,2,1
1,1,21,1,5,16,2,eminent,1,1,1.015,1,1
1,1,21,1,5,17,1,Wunsch,1,1,0.566,2,1
1,1,21,1,5,18,1,Mauer,1,1,0.51,2,1
1,1,21,1,5,19,4,Kevmv,0,1,0.558,2,2
1,1,21,1,5,20,2,zähmen,1,1,0.503,1,1
1,1,21,1,5,21,2,Tegel,0,0,1.222,1,1
1,1,21,1,5,22,2,Näher,1,1,1.086,1,1
1,1,21,1,5,23,3,Daktot,0,1,0.702,1,2
1,1,21,1,5,24,4,Bortenk,0,1,0.703,2,2
1,1,21,1,5,25,1,wenig,1,1,0.646,2,1
1,1,21,1,5,26,1,kommend,1,1,0.591,2,1
1,1,21,1,5,27,3,orlebt,0,1,0.75,1,2
1,1,21,1,5,28,2,Kubus,1,1,1.383,1,1
1,1,21,1,5,29,4,Fncfi,0,1,0.534,2,2
1,1,21,1,5,30,1,bevor,1,1,0.51,2,1
1,1,21,1,5,31,4,Ladge,0,1,0.743,2,2
1,1,21,1,5,32,2,Bestie,1,1,0.631,1,1
1,1,21,1,5,33,3,Handert,0,1,0.79,1,2
1,1,21,1,5,34,1,Hoffnung,1,1,0.566,2,1
1,1,21,1,5,35,3,golegort,0,1,0.846,1,2
1,1,21,1,5,36,2,Stuck,0,0,0.735,1,1
1,1,21,1,5,37,1,Bezirk,1,1,0.831,2,1
1,1,21,1,5,38,1,Album,1,1,0.59,2,1
1,1,21,1,5,39,3,Paesoa,0,1,0.606,1,2
1,1,21,1,5,40,3,Minko,0,1,0.727,1,2
1,1,21,1,5,41,1,Dauer,1,1,0.51,2,1
1,1,21,1,5,42,3,Serbu,0,1,0.511,1,2
1,1,21,1,5,43,1,Stärke,1,1,0.55,2,1
1,1,21,1,5,44,3,biußun,0,1,0.55,1,2
1,1,21,1,5,45,2,Bürde,1,1,1.126,1,1
1,1,21,1,5,46,3,uppig,1,0,1.334,1,2
1,1,21,1,5,47,2,umhin,0,0,1.15,1,1
1,1,21,1,5,48,2,Genom,1,1,0.895,1,1
1,1,21,1,5,49,1,berühmt,1,1,0.559,2,1
1,1,21,1,5,50,1,Bereich,1,1,0.526,2,1
1,1,21,1,5,51,4,Kltnh,0,1,0.583,2,2
1,1,21,1,5,52,4,Seeri,0,1,0.854,2,2
1,1,21,1,5,53,4,Laeehi,0,1,0.983,2,2
1,1,21,1,5,54,1,Antrag,1,1,0.598,2,1
1,1,21,1,5,55,3,Ingal,0,1,0.743,1,2
1,1,21,1,5,56,3,Spett,0,1,0.887,1,2
1,1,21,1,5,57,3,Kipftech,0,1,0.975,1,2
1,1,21,1,5,58,2,Algebra,1,1,0.974,1,1
1,1,21,1,5,59,4,Fonoan,0,1,0.686,2,2
1,1,21,1,5,60,2,laben,1,1,1.215,1,1
1,1,21,1,5,61,1,Branche,1,1,1.199,2,1
1,1,21,1,5,62,4,Eupda,0,1,0.678,2,2
1,1,21,1,5,63,4,stkrese,0,1,0.622,2,2
1,1,21,1,5,64,1,Bühne,1,1,0.517,2,1
1,1,21,1,5,65,3,Anrocht,0,1,0.695,1,2
1,1,21,1,5,66,3,Gagant,0,1,1.582,1,2
1,1,21,1,5,67,2,Glatze,1,1,0.63,1,1
1,1,21,1,5,68,4,gastfaä,0,1,0.511,2,2
1,1,21,1,5,69,1,unklar,1,1,0.59,2,1
1,1,21,1,5,70,1,daher,1,1,0.551,2,1
1,1,21,1,5,71,3,Bunus,0,1,0.607,1,2
1,1,21,1,5,72,4,Blnwr,0,1,0.502,2,2
1,1,21,1,5,73,4,oelfrs,0,1,0.55,2,2
1,1,21,1,5,74,2,Nachbau,1,1,0.902,1,1
1,1,21,1,5,75,4,Scoatn,0,1,0.55,2,2
1,1,21,1,5,76,3,Fuhni,0,1,0.646,1,2
1,1,21,1,5,77,1,kündigen,1,1,0.605,2,1
1,1,21,1,5,78,4,fmgeakhn,0,1,0.518,2,2
1,1,21,1,5,79,2,Gegenpol,1,1,0.654,1,1
1,1,21,1,5,80,3,vermusst,0,1,0.702,1,2
1,1,21,1,5,81,3,Fedil,0,1,0.95,1,2
1,1,21,1,5,82,3,veulott,0,1,0.622,1,2
1,1,21,1,5,83,4,Knriwb,0,1,0.478,2,2
1,1,21,1,5,84,2,Taifun,1,1,0.725,1,1
1,1,21,1,5,85,4,Mätgu,0,1,0.583,2,2
1,1,21,1,5,86,3,Rempf,0,1,0.655,1,2
1,1,21,1,5,87,4,Betuutt,0,1,0.607,2,2
1,1,21,1,5,88,2,Kalif,1,1,0.711,1,1
1,1,21,1,5,89,4,Zostn,0,1,0.582,2,2
1,1,21,1,5,90,4,Cablz,0,1,0.678,2,2
1,1,21,1,5,91,2,Jawort,1,1,0.95,1,1
1,1,21,1,5,92,2,bestimmt,1,1,0.75,1,1
1,1,21,1,5,93,3,Trieing,0,1,0.71,1,2
1,1,21,1,5,94,1,schön,1,1,0.503,2,1
1,1,21,1,5,95,1,Feier,1,1,0.532,2,1
1,1,21,1,5,96,2,Prothese,1,1,2.078,1,1
1,1,21,1,5,97,3,Knarps,0,1,0.902,1,2
1,1,21,1,5,98,2,Poster,1,1,0.596,1,1
1,1,21,1,5,99,3,Mastar,0,1,0.974,1,2
1,1,21,1,5,100,3,Kurps,0,1,0.894,1,2
1,1,21,1,5,101,2,Andante,1,1,1.678,1,1
1,1,21,1,5,102,4,aöhrg,0,1,0.574,2,2
1,1,21,1,5,103,2,leger,1,1,0.822,1,1
1,1,21,1,5,104,4,Artveu,0,1,0.662,2,2
1,1,21,1,6,5,4,hpwwnze,0,1,0.511,2,2
1,1,21,1,6,6,1,Gesetz,1,1,0.526,2,1
1,1,21,1,6,7,4,Llnug,0,1,0.527,2,2
1,1,21,1,6,8,3,Pussagu,0,1,0.526,1,2
1,1,21,1,6,9,3,empert,0,1,0.807,1,2
1,1,21,1,6,10,1,erinnern,1,1,0.535,2,1
1,1,21,1,6,11,3,Idoul,0,1,0.63,1,2
1,1,21,1,6,12,3,Siglar,0,1,1.007,1,2
1,1,21,1,6,13,4,Woideit,0,1,0.598,2,2
1,1,21,1,6,14,2,Schaft,0,0,1.086,1,1
1,1,21,1,6,15,4,Brrii,0,1,1.039,2,2
1,1,21,1,6,16,4,Aadalmt,0,1,0.543,2,2
1,1,21,1,6,17,2,taumeln,1,1,0.855,1,1
1,1,21,1,6,18,4,Haeabi,0,1,0.534,2,2
1,1,21,1,6,19,3,besorgin,0,1,0.799,1,2
1,1,21,1,6,20,1,bessern,1,1,0.607,2,1
1,1,21,1,6,21,3,Emkroos,0,1,0.502,1,2
1,1,21,1,6,22,2,blinzeln,1,1,0.693,1,1
1,1,21,1,6,23,1,Klima,1,1,0.478,2,1
1,1,21,1,6,24,1,Rathaus,1,1,0.534,2,1
1,1,21,1,6,25,4,Ftmheemr,0,1,0.646,2,2
1,1,21,1,6,26,1,Marke,1,1,0.543,2,1
1,1,21,1,6,27,2,Steig,1,1,0.67,1,1
1,1,21,1,6,28,3,guruum,0,1,0.495,1,2
1,1,21,1,6,29,2,wallen,1,1,1.046,1,1
1,1,21,1,6,30,4,iukeenir,0,1,0.542,2,2
1,1,21,1,6,31,2,wackelig,1,1,0.654,1,1
1,1,21,1,6,32,3,Spirti,0,1,0.678,1,2
1,1,21,1,6,33,1,Wachstum,1,1,0.687,2,1
1,1,21,1,6,34,4,Loounaen,0,1,0.671,2,2
1,1,21,1,6,35,2,vollauf,1,1,1.455,1,1
1,1,21,1,6,36,4,Äblldsld,0,1,0.526,2,2
1,1,21,1,6,37,4,Pootonn,0,1,0.534,2,2
1,1,21,1,6,38,1,schlecht,1,1,0.703,2,1
1,1,21,1,6,39,2,Mythe,1,1,1.391,1,1
1,1,21,1,6,40,1,Einnahme,1,1,0.751,2,1
1,1,21,1,6,41,1,Franke,1,1,0.662,2,1
1,1,21,1,6,42,2,abhauen,1,1,0.59,1,1
1,1,21,1,6,43,2,Hundekot,1,1,0.686,1,1
1,1,21,1,6,44,4,Ntawwl,0,1,0.534,2,2
1,1,21,1,6,45,1,Truppe,1,1,0.63,2,1
1,1,21,1,6,46,2,Spätlese,1,1,0.702,1,1
1,1,21,1,6,47,4,tmrncad,0,1,0.695,2,2
1,1,21,1,6,48,3,oblinkon,0,1,1.278,1,2
1,1,21,1,6,49,2,Abscheu,1,1,0.59,1,1
1,1,21,1,6,50,3,erhilan,0,1,0.59,1,2
1,1,21,1,6,51,4,Bemir,0,1,0.535,2,2
1,1,21,1,6,52,2,Lüftung,1,1,0.591,1,1
1,1,21,1,6,53,1,mächtig,1,1,0.583,2,1
1,1,21,1,6,54,2,Geheiß,1,1,0.631,1,1
1,1,21,1,6,55,4,Raffmh,0,1,0.703,2,2
1,1,21,1,6,56,3,Etega,0,1,0.686,1,2
1,1,21,1,6,57,2,Staude,1,1,0.815,1,1
1,1,21,1,6,58,1,Zimmer,1,1,0.558,2,1
1,1,21,1,6,59,2,ködern,1,1,0.798,1,1
1,1,21,1,6,60,3,Anduz,0,1,0.598,1,2
1,1,21,1,6,61,4,aöbhitn,0,1,0.598,2,2
1,1,21,1,6,62,4,rlhkoa,0,1,0.47,2,2
1,1,21,1,6,63,3,Erliaber,0,1,1.094,1,2
1,1,21,1,6,64,3,wuckuln,0,1,0.973,1,2
1,1,21,1,6,65,3,Jahrbach,0,1,1.303,1,2
1,1,21,1,6,66,2,Unwille,1,1,0.783,1,1
1,1,21,1,6,67,4,laottn,0,1,0.79,2,2
1,1,21,1,6,68,3,Manchnir,0,1,0.654,1,2
1,1,21,1,6,69,2,Parkdeck,1,1,1.014,1,1
1,1,21,1,6,70,3,konturn,0,1,1.829,1,2
1,1,21,1,6,71,4,Mumdw,0,1,0.502,2,2
1,1,21,1,6,72,2,zögernd,1,1,0.63,1,1
1,1,21,1,6,73,4,ranpezd,0,1,0.615,2,2
1,1,21,1,6,74,3,Ihrwurm,0,1,0.79,1,2
1,1,21,1,6,75,1,Phase,1,1,0.614,2,1
1,1,21,1,6,76,1,dennoch,1,1,0.614,2,1
1,1,21,1,6,77,1,Stellung,1,1,0.462,2,1
1,1,21,1,6,78,1,Vorbild,1,1,0.574,2,1
1,1,21,1,6,79,2,fluten,1,1,2.054,1,1
1,1,21,1,6,80,3,skarral,0,1,0.735,1,2
1,1,21,1,6,81,4,Neigaa,0,1,0.702,2,2
1,1,21,1,6,82,1,sterben,1,1,0.551,2,1
1,1,21,1,6,83,3,Risirvot,0,1,0.63,1,2
1,1,21,1,6,84,2,Wiesn,1,1,1.511,1,1
1,1,21,1,6,85,1,leisten,1,1,1.246,2,1
1,1,21,1,6,86,2,Aufdruck,1,1,0.631,1,1
1,1,21,1,6,87,1,entgegen,1,1,0.694,2,1
1,1,21,1,6,88,4,Tonaml,0,1,1.894,2,2
1,1,21,1,6,89,4,Qdlmaco,0,1,0.51,2,2
1,1,21,1,6,90,1,Kaiser,1,1,0.573,2,1
1,1,21,1,6,91,1,häufig,1,1,0.558,2,1
1,1,21,1,6,92,4,sohla,0,1,0.591,2,2
1,1,21,1,6,93,4,Setiee,0,1,0.631,2,2
1,1,21,1,6,94,1,vorher,1,1,0.543,2,1
1,1,21,1,6,95,3,folmusch,0,1,0.599,1,2
1,1,21,1,6,96,3,Kilemnu,0,1,0.582,1,2
1,1,21,1,6,97,1,Abschied,1,1,0.631,2,1
1,1,21,1,6,98,2,Trance,1,1,0.822,1,1
1,1,21,1,6,99,2,trällern,1,1,0.791,1,1
1,1,21,1,6,100,3,mirlan,0,1,0.71,1,2
1,1,21,1,6,101,2,Füllung,1,1,0.511,1,1
1,1,21,1,6,102,3,prifen,0,1,0.83,1,2
1,1,21,1,6,103,1,sondern,1,1,0.863,2,1
1,1,21,1,6,104,3,Wunkul,0,1,0.535,1,2
1,1,21,1,7,5,1,mehrere,1,1,0.566,2,1
1,1,21,1,7,6,2,Obelisk,1,1,3.713,1,1
1,1,21,1,7,7,2,Chaot,1,1,0.574,1,1
1,1,21,1,7,8,4,Tlrluoe,0,1,0.607,2,2
1,1,21,1,7,9,2,Tagebau,1,1,0.671,1,1
1,1,21,1,7,10,1,darüber,1,1,0.559,2,1
1,1,21,1,7,11,1,schätzen,1,1,0.504,2,1
1,1,21,1,7,12,2,Radikale,1,1,0.712,1,1
1,1,21,1,7,13,4,Sekulr,0,1,0.775,2,2
1,1,21,1,7,14,3,Kiron,0,1,0.704,1,2
1,1,21,1,7,15,3,Faskes,0,1,0.913,1,2
1,1,21,1,7,16,3,abermils,0,1,2.535,1,2
1,1,21,1,7,17,4,Aabanzn,0,1,0.551,2,2
1,1,21,1,7,18,4,Mvsdagn,0,1,0.455,2,2
1,1,21,1,7,19,2,Sippe,1,1,0.84,1,1
1,1,21,1,7,20,1,Frühjahr,1,1,0.544,2,1
1,1,21,1,7,21,3,guwoltug,0,1,0.543,1,2
1,1,21,1,7,22,2,Trailer,1,1,0.551,1,1
1,1,21,1,7,23,4,srnsfln,0,1,0.504,2,2
1,1,21,1,7,24,2,Syntax,1,1,0.761,1,1
1,1,21,1,7,25,3,absihbir,0,1,0.471,1,2
1,1,21,1,7,26,1,Nutzung,1,1,0.529,2,1
1,1,21,1,7,27,4,tagseln,0,1,1.527,2,2
1,1,21,1,7,28,3,Towir,0,1,0.736,1,2
1,1,21,1,7,29,4,bunnerdk,0,1,0.584,2,2
1,1,21,1,7,30,4,seftea,0,1,0.688,2,2
1,1,21,1,7,31,1,treten,1,1,0.832,2,1
1,1,21,1,7,32,4,Rugzmt,0,1,0.551,2,2
1,1,21,1,7,33,1,anfangen,1,1,0.688,2,1
1,1,21,1,7,34,3,Aosgung,0,1,0.582,1,2
1,1,21,1,7,35,2,ehrbar,1,1,1.031,1,1
1,1,21,1,7,36,4,Uesta,0,1,0.631,2,2
1,1,21,1,7,37,2,Wimper,1,1,0.623,1,1
1,1,21,1,7,38,2,Korso,1,1,0.888,1,1
1,1,21,1,7,39,3,ormoßegt,0,1,0.855,1,2
1,1,21,1,7,40,1,Stimmung,1,1,0.599,2,1
1,1,21,1,7,41,1,Funktion,1,1,0.6,2,1
1,1,21,1,7,42,2,Genossin,1,1,0.784,1,1
1,1,21,1,7,43,4,Wülhrg,0,1,0.623,2,2
1,1,21,1,7,44,4,Snnaishd,0,1,0.592,2,2
1,1,21,1,7,45,3,Iirbig,0,1,0.671,1,2
1,1,21,1,7,46,1,Strecke,1,1,0.607,2,1
1,1,21,1,7,47,1,Schutz,1,1,0.559,2,1
1,1,21,1,7,48,4,Krndha,0,1,0.584,2,2
1,1,21,1,7,49,2,Badehose,1,1,0.6,1,1
1,1,21,1,7,50,2,Loblied,1,1,0.903,1,1
1,1,21,1,7,51,1,Münchner,1,1,0.768,2,1
1,1,21,1,7,52,3,hulprog,0,1,0.824,1,2
1,1,21,1,7,53,1,ergeben,1,1,0.591,2,1
1,1,21,1,7,54,3,staonun,0,1,0.641,1,2
1,1,21,1,7,55,4,Mepmi,0,1,0.647,2,2
1,1,21,1,7,56,3,vartan,0,1,0.791,1,2
1,1,21,1,7,57,3,suuveron,0,1,0.67,1,2
1,1,21,1,7,58,4,Lrhaerk,0,1,0.631,2,2
1,1,21,1,7,59,4,Srtii,0,1,0.527,2,2
1,1,21,1,7,60,3,Jangsti,0,1,0.551,1,2
1,1,21,1,7,61,2,Replik,0,0,1.255,1,1
1,1,21,1,7,62,1,Blatt,1,1,0.591,2,1
1,1,21,1,7,63,2,Etikette,1,1,0.687,1,1
1,1,21,1,7,64,4,Zäsor,0,1,1.055,2,2
1,1,21,1,7,65,3,Pirzilla,0,1,0.679,1,2
1,1,21,1,7,66,1,Adresse,1,1,0.791,2,1
1,1,21,1,7,67,1,wenden,1,1,0.615,2,1
1,1,21,1,7,68,1,scharf,1,1,0.487,2,1
1,1,21,1,7,69,2,Puffer,1,1,0.59,1,1
1,1,21,1,7,70,2,Sklerose,0,0,2.678,1,1
1,1,21,1,7,71,4,Biiece,0,1,0.63,2,2
1,1,21,1,7,72,4,Gutbnem,0,1,0.63,2,2
1,1,21,1,7,73,2,abwälzen,1,1,1.375,1,1
1,1,21,1,7,74,1,mittel,1,1,0.567,2,1
1,1,21,1,7,75,3,Graßwort,0,1,1.43,1,2
1,1,21,1,7,76,4,Srchrl,0,1,0.511,2,2
1,1,21,1,7,77,2,Kursaal,1,1,1.319,1,1
1,1,21,1,7,78,1,planen,1,1,1.662,2,1
1,1,21,1,7,79,2,sehnlich,1,1,2.847,1,1
1,1,21,1,7,80,4,Tlehio,0,1,1.223,2,2
1,1,21,1,7,81,3,Vokil,0,1,0.551,1,2
1,1,21,1,7,82,1,Ausnahme,1,1,0.567,2,1
1,1,21,1,7,83,3,Flagul,0,1,0.782,1,2
1,1,21,1,7,84,2,Advokat,1,1,1.159,1,1
1,1,21,1,7,85,3,ginotzt,0,1,0.743,1,2
1,1,21,1,7,86,1,Grüne,1,1,0.591,2,1
1,1,21,1,7,87,1,führend,1,1,0.758,2,1
1,1,21,1,7,88,3,Isruolu,0,1,0.751,1,2
1,1,21,1,7,89,4,Lomgjii,0,1,0.678,2,2
1,1,21,1,7,90,2,Marder,1,1,0.815,1,1
1,1,21,1,7,91,4,Sotln,0,1,0.597,2,2
1,1,21,1,7,92,3,Orwild,0,1,0.966,1,2
1,1,21,1,7,93,2,Grinsen,1,1,0.583,1,1
1,1,21,1,7,94,3,Importa,0,1,1.751,1,2
1,1,21,1,7,95,2,wippen,1,1,0.526,1,1
1,1,21,1,7,96,1,statt,1,1,0.511,2,1
1,1,21,1,7,97,1,ziemlich,1,1,0.551,2,1
1,1,21,1,7,98,3,kuroas,0,1,0.959,1,2
1,1,21,1,7,99,4,Kulbko,0,1,0.719,2,2
1,1,21,1,7,100,3,nemmer,0,1,1.582,1,2
1,1,21,1,7,101,2,Erstliga,1,1,0.751,1,1
1,1,21,1,7,102,4,aella,0,1,0.583,2,2
1,1,21,1,7,103,1,singen,1,1,0.575,2,1
1,1,21,1,7,104,3,schnaion,0,1,0.815,1,2
1,1,21,1,8,5,2,Orgie,1,1,0.735,1,1
1,1,21,1,8,6,1,Umsatz,1,1,0.535,2,1
1,1,21,1,8,7,4,Pkroso,0,1,0.653,2,2
1,1,21,1,8,8,1,daran,1,1,0.567,2,1
1,1,21,1,8,9,4,Tikeuh,0,1,0.615,2,2
1,1,21,1,8,10,4,eölblnr,0,1,0.559,2,2
1,1,21,1,8,11,1,fühlen,1,1,0.543,2,1
1,1,21,1,8,12,4,möitle,0,1,0.542,2,2
1,1,21,1,8,13,4,Meacol,0,1,0.647,2,2
1,1,21,1,8,14,3,Kanvii,0,1,0.639,1,2
1,1,21,1,8,15,2,Wirre,1,1,0.735,1,1
1,1,21,1,8,16,2,Parken,1,1,0.775,1,1
1,1,21,1,8,17,3,Wandling,0,1,0.887,1,2
1,1,21,1,8,18,1,merken,1,1,0.478,2,1
1,1,21,1,8,19,1,männlich,1,1,0.535,2,1
1,1,21,1,8,20,3,iolag,0,1,0.67,1,2
1,1,21,1,8,21,4,Kenyish,0,1,0.799,2,2
1,1,21,1,8,22,1,schlagen,1,1,0.647,2,1
1,1,21,1,8,23,3,Furuun,0,1,0.703,1,2
1,1,21,1,8,24,3,ubrifbur,0,1,0.695,1,2
1,1,21,1,8,25,2,Britin,1,1,0.767,1,1
1,1,21,1,8,26,4,doeäii,0,1,0.559,2,2
1,1,21,1,8,27,2,anraten,1,1,0.663,1,1
1,1,21,1,8,28,3,schuor,0,1,0.679,1,2
1,1,21,1,8,29,4,zepaee,0,1,0.559,2,2
1,1,21,1,8,30,3,omisont,0,1,0.567,1,2
1,1,21,1,8,31,2,Gorilla,1,1,0.623,1,1
1,1,21,1,8,32,2,Steppe,1,1,0.759,1,1
1,1,21,1,8,33,4,Pafget,0,1,0.647,2,2
1,1,21,1,8,34,3,Assoy,0,1,0.886,1,2
1,1,21,1,8,35,3,ixklasiv,0,1,0.854,1,2
1,1,21,1,8,36,3,lucht,0,1,0.75,1,2
1,1,21,1,8,37,1,schlimm,1,1,0.567,2,1
1,1,21,1,8,38,2,Ketschup,0,0,0.775,1,1
1,1,21,1,8,39,1,klären,1,1,1.887,2,1
1,1,21,1,8,40,2,Pendel,1,1,0.75,1,1
1,1,21,1,8,41,4,dngpu,0,1,0.807,2,2
1,1,21,1,8,42,3,foaburn,0,1,0.646,1,2
1,1,21,1,8,43,4,Koenr,0,1,0.581,2,2
1,1,21,1,8,44,4,hoilte,0,1,0.935,2,2
1,1,21,1,8,45,2,Essenz,1,1,0.647,1,1
1,1,21,1,8,46,4,Leleir,0,1,0.599,2,2
1,1,21,1,8,47,1,Treffer,1,1,0.63,2,1
1,1,21,1,8,48,2,Punsch,1,1,0.813,1,1
1,1,21,1,8,49,1,links,1,1,0.503,2,1
1,1,21,1,8,50,1,Zustand,1,1,0.703,2,1
1,1,21,1,8,51,3,arlettin,0,1,0.671,1,2
1,1,21,1,8,52,2,ausarten,1,1,0.935,1,1
1,1,21,1,8,53,4,Ouller,0,1,0.671,2,2
1,1,21,1,8,54,1,August,1,1,0.551,2,1
1,1,21,1,8,55,1,selber,1,1,0.639,2,1
1,1,21,1,8,56,1,antreten,1,1,0.703,2,1
1,1,21,1,8,57,2,ungestüm,1,1,0.839,1,1
1,1,21,1,8,58,3,luyel,0,1,0.607,1,2
1,1,21,1,8,59,1,Eindruck,1,1,0.551,2,1
1,1,21,1,8,60,4,aehspn,0,1,0.527,2,2
1,1,21,1,8,61,4,Vnbea,0,1,0.568,2,2
1,1,21,1,8,62,2,Pacht,1,1,0.551,1,1
1,1,21,1,8,63,3,Zyklis,0,1,0.751,1,2
1,1,21,1,8,64,4,aäfct,0,1,0.623,2,2
1,1,21,1,8,65,2,Schmach,1,1,0.639,1,1
1,1,21,1,8,66,2,drahtlos,1,1,0.687,1,1
1,1,21,1,8,67,4,Fodeue,0,1,0.894,2,2
1,1,21,1,8,68,2,Zugewinn,1,1,0.703,1,1
1,1,21,1,8,69,2,Silikon,1,1,0.943,1,1
1,1,21,1,8,70,2,galant,1,1,1.166,1,1
1,1,21,1,8,71,1,vorlegen,1,1,0.975,2,1
1,1,21,1,8,72,2,Likör,1,1,0.646,1,1
1,1,21,1,8,73,1,Stein,1,1,0.479,2,1
1,1,21,1,8,74,1,Fahrer,1,1,0.479,2,1
1,1,21,1,8,75,1,prüfen,1,1,0.543,2,1
1,1,21,1,8,76,4,Yarur,0,1,0.914,2,2
1,1,21,1,8,77,2,Einakter,1,1,0.895,1,1
1,1,21,1,8,78,3,Kreppe,0,1,1.527,1,2
1,1,21,1,8,79,2,morbid,0,0,0.695,1,1
1,1,21,1,8,80,3,fektav,0,1,1.143,1,2
1,1,21,1,8,81,3,Pircuirs,0,1,0.831,1,2
1,1,21,1,8,82,3,illumol,0,1,0.967,1,2
1,1,21,1,8,83,3,Kudux,0,1,0.583,1,2
1,1,21,1,8,84,3,Chenisu,0,1,0.879,1,2
1,1,21,1,8,85,4,Diaujet,0,1,0.815,2,2
1,1,21,1,8,86,1,betont,1,1,0.679,2,1
1,1,21,1,8,87,3,lustan,0,1,0.695,1,2
1,1,21,1,8,88,1,Karte,1,1,0.551,2,1
1,1,21,1,8,89,4,Didenir,0,1,0.679,2,2
1,1,21,1,8,90,4,Ficos,0,1,0.863,2,2
1,1,21,1,8,91,3,Synada,0,1,0.958,1,2
1,1,21,1,8,92,2,Kanne,1,1,0.583,1,1
1,1,21,1,8,93,3,Ployer,0,1,0.638,1,2
1,1,21,1,8,94,4,Ohßfneß,0,1,0.614,2,2
1,1,21,1,8,95,4,Aufrwtn,0,1,0.567,2,2
1,1,21,1,8,96,2,krähen,1,1,0.639,1,1
1,1,21,1,8,97,3,Zaptor,0,1,0.967,1,2
1,1,21,1,8,98,2,wedeln,1,1,0.879,1,1
1,1,21,1,8,99,4,Soicigei,0,1,0.511,2,2
1,1,21,1,8,100,1,Szene,1,1,0.631,2,1
1,1,21,1,8,101,1,ankommen,1,1,0.639,2,1
1,1,21,1,8,102,1,Ursache,1,1,0.55,2,1
1,1,21,1,8,103,1,streng,1,1,0.519,2,1
1,1,21,1,8,104,3,Bosenuss,0,1,1.006,1,2
1,1,21,2,1,5,4,Sersrnu,0,1,0.694,2,2
1,1,21,2,1,6,3,Qoontott,0,1,0.546,1,2
1,1,21,2,1,7,4,Gearko,0,1,0.815,2,2
1,1,21,2,1,8,1,erklärt,1,1,0.59,2,1
1,1,21,2,1,9,1,füllen,1,1,0.559,2,1
1,1,21,2,1,10,3,Vereiblu,0,1,0.879,1,2
1,1,21,2,1,11,3,Sessol,0,1,0.718,1,2
1,1,21,2,1,12,4,Oardaa,0,1,0.723,2,2
1,1,21,2,1,13,4,Gidonerg,0,1,0.558,2,2
1,1,21,2,1,14,3,gawerdun,0,1,0.558,1,2
1,1,21,2,1,15,3,hirrloch,0,1,0.439,1,2
1,1,21,2,1,16,2,Rezeptur,1,1,0.951,1,1
1,1,21,2,1,17,2,betören,1,1,1.07,1,1
1,1,21,2,1,18,2,Mulde,1,1,0.671,1,1
1,1,21,2,1,19,3,Taefa,0,1,0.702,1,2
1,1,21,2,1,20,1,Festival,1,1,0.695,2,1
1,1,21,2,1,21,2,Schelte,1,1,0.903,1,1
1,1,21,2,1,22,1,fehlend,1,1,0.671,2,1
1,1,21,2,1,23,1,Besitz,1,1,0.559,2,1
1,1,21,2,1,24,2,herauf,1,1,0.83,1,1
1,1,21,2,1,25,1,FALSCH,1,1,1.477,2,1
1,1,21,2,1,26,3,wickin,0,1,1.086,1,2
1,1,21,2,1,27,1,stets,1,1,0.574,2,1
1,1,21,2,1,28,4,Munabü,0,1,1.103,2,2
1,1,21,2,1,29,3,irzeagt,0,1,0.854,1,2
1,1,21,2,1,30,2,Dirndl,1,1,0.67,1,1
1,1,21,2,1,31,4,Vsslos,0,1,0.543,2,2
1,1,21,2,1,32,4,sorou,0,1,0.63,2,2
1,1,21,2,1,33,1,Viertel,1,1,0.542,2,1
1,1,21,2,1,34,2,absaugen,1,1,0.583,1,1
1,1,21,2,1,35,1,brauchen,1,1,0.495,2,1
1,1,21,2,1,36,1,westlich,1,1,0.487,2,1
1,1,21,2,1,37,2,Pascha,1,1,0.99,1,1
1,1,21,2,1,38,3,Anloihen,0,1,0.645,1,2
1,1,21,2,1,39,2,fetten,1,1,0.511,1,1
1,1,21,2,1,40,3,Mecko,0,1,0.664,1,2
1,1,21,2,1,41,1,intensiv,1,1,0.535,2,1
1,1,21,2,1,42,2,Scholle,1,1,0.534,1,1
1,1,21,2,1,43,3,Versogen,1,0,0.591,1,2
1,1,21,2,1,44,3,Segmant,0,1,0.918,1,2
1,1,21,2,1,45,4,Trioeeu,0,1,0.517,2,2
1,1,21,2,1,46,1,allein,1,1,0.503,2,1
1,1,21,2,1,47,3,Siode,0,1,0.502,1,2
1,1,21,2,1,48,4,Wectf,0,1,0.599,2,2
1,1,21,2,1,49,2,Athener,1,1,0.686,1,1
1,1,21,2,1,50,3,Trana,0,1,0.639,1,2
1,1,21,2,1,51,2,Alemanne,1,1,1.206,1,1
1,1,21,2,1,52,2,Braunbär,1,1,0.519,1,1
1,1,21,2,1,53,1,Gewinn,1,1,0.439,2,1
1,1,21,2,1,54,1,Stern,1,1,0.494,2,1
1,1,21,2,1,55,2,müßig,1,1,0.495,1,1
1,1,21,2,1,56,2,Rüssel,1,1,0.43,1,1
1,1,21,2,1,57,2,wogen,1,1,0.671,1,1
1,1,21,2,1,58,4,Bepsedn,0,1,0.542,2,2
1,1,21,2,1,59,1,seitdem,1,1,0.655,2,1
1,1,21,2,1,60,2,labil,1,1,0.662,1,1
1,1,21,2,1,61,1,warnen,1,1,0.542,2,1
1,1,21,2,1,62,1,enorm,1,1,0.527,2,1
1,1,21,2,1,63,1,Computer,1,1,0.494,2,1
1,1,21,2,1,64,4,lenieene,0,1,0.67,2,2
1,1,21,2,1,65,4,Fiatsh,0,1,0.591,2,2
1,1,21,2,1,66,2,demütig,1,1,0.559,1,1
1,1,21,2,1,67,3,Workzaag,0,1,0.551,1,2
1,1,21,2,1,68,3,Uismuß,0,1,0.59,1,2
1,1,21,2,1,69,1,weder,1,1,0.573,2,1
1,1,21,2,1,70,3,Verlugar,0,1,0.806,1,2
1,1,21,2,1,71,3,Ibflass,0,1,0.567,1,2
1,1,21,2,1,72,3,Nackun,0,1,0.741,1,2
1,1,21,2,1,73,4,Peaircz,0,1,0.439,2,2
1,1,21,2,1,74,4,suiflrr,0,1,0.495,2,2
1,1,21,2,1,75,2,Nager,1,1,0.503,1,1
1,1,21,2,1,76,1,ablehnen,1,1,0.558,2,1
1,1,21,2,1,77,3,Soeta,0,1,0.543,1,2
1,1,21,2,1,78,1,Haushalt,1,1,0.503,2,1
1,1,21,2,1,79,4,Dorken,0,1,0.886,2,2
1,1,21,2,1,80,3,Gopuck,0,1,0.494,1,2
1,1,21,2,1,81,2,Fernglas,1,1,0.479,1,1
1,1,21,2,1,82,2,gerettet,1,1,0.534,1,1
1,1,21,2,1,83,3,zoteul,0,1,0.519,1,2
1,1,21,2,1,84,4,Qereigt,0,1,0.758,2,2
1,1,21,2,1,85,4,jrdte,0,1,0.566,2,2
1,1,21,2,1,86,4,Kenahn,0,1,0.686,2,2
1,1,21,2,1,87,2,Fachfrau,1,1,0.549,1,1
1,1,21,2,1,88,1,polnisch,1,1,0.59,2,1
1,1,21,2,1,89,4,Eprec,0,1,1.046,2,2
1,1,21,2,1,90,4,khbka,0,1,0.51,2,2
1,1,21,2,1,91,2,umrunden,1,1,0.622,1,1
1,1,21,2,1,92,1,Titel,1,1,0.527,2,1
1,1,21,2,1,93,4,Mahes,0,1,0.51,2,2
1,1,21,2,1,94,2,Fötus,1,1,0.67,1,1
1,1,21,2,1,95,1,Vater,1,1,0.559,2,1
1,1,21,2,1,96,1,sammeln,1,1,0.518,2,1
1,1,21,2,1,97,3,Kerheus,0,1,0.663,1,2
1,1,21,2,1,98,4,Fiwgn,0,1,0.575,2,2
1,1,21,2,1,99,4,Ueleta,0,1,0.567,2,2
1,1,21,2,1,100,3,porut,0,1,0.734,1,2
1,1,21,2,1,101,4,gcrirt,0,1,0.599,2,2
1,1,21,2,1,102,4,sytpnisz,0,1,0.447,2,2
1,1,21,2,1,103,3,Manepel,0,1,0.725,1,2
1,1,21,2,1,104,2,Sunnit,0,0,1.959,1,1
1,1,21,2,2,5,2,kalauern,0,0,0.71,1,1
1,1,21,2,2,6,1,zwingen,1,1,0.647,2,1
1,1,21,2,2,7,2,erholt,1,1,0.583,1,1
1,1,21,2,2,8,1,Schuss,1,1,0.446,2,1
1,1,21,2,2,9,4,Sortfe,0,1,0.647,2,2
1,1,21,2,2,10,3,Schuf,0,1,2.231,1,2
1,1,21,2,2,11,4,gkneel,0,1,0.582,2,2
1,1,21,2,2,12,2,Manieren,1,1,0.63,1,1
1,1,21,2,2,13,2,Detektor,1,1,1.03,1,1
1,1,21,2,2,14,4,Rorantt,0,1,0.591,2,2
1,1,21,2,2,15,2,Karaoke,1,1,0.559,1,1
1,1,21,2,2,16,2,Postbote,1,1,0.591,1,1
1,1,21,2,2,17,4,Tenbal,0,1,1.014,2,2
1,1,21,2,2,18,4,Pmess,0,1,0.55,2,2
1,1,21,2,2,19,2,leasen,1,1,0.687,1,1
1,1,21,2,2,20,4,dbpoes,0,1,0.486,2,2
1,1,21,2,2,21,4,Muhhbe,0,1,0.599,2,2
1,1,21,2,2,22,1,Bayer,1,1,0.783,2,1
1,1,21,2,2,23,2,Verlaub,1,1,0.783,1,1
1,1,21,2,2,24,2,Wallach,1,1,0.735,1,1
1,1,21,2,2,25,3,nuidosch,0,1,0.526,1,2
1,1,21,2,2,26,2,gefällt,1,1,0.654,1,1
1,1,21,2,2,27,3,ebhiron,0,1,0.623,1,2
1,1,21,2,2,28,3,Meschoi,0,1,0.606,1,2
1,1,21,2,2,29,4,Hnnatoin,0,1,0.542,2,2
1,1,21,2,2,30,4,Bnonoee,0,1,0.511,2,2
1,1,21,2,2,31,4,mibecaln,0,1,0.775,2,2
1,1,21,2,2,32,3,gamischt,0,1,0.886,1,2
1,1,21,2,2,33,2,zudecken,1,1,1.006,1,1
1,1,21,2,2,34,4,Beoxeui,0,1,0.494,2,2
1,1,21,2,2,35,1,retten,1,1,0.543,2,1
1,1,21,2,2,36,2,Gesteck,1,1,0.758,1,1
1,1,21,2,2,37,1,Spiegel,1,1,0.47,2,1
1,1,21,2,2,38,4,htaku,0,1,0.655,2,2
1,1,21,2,2,39,1,Politik,1,1,0.503,2,1
1,1,21,2,2,40,4,gapwii,0,1,0.567,2,2
1,1,21,2,2,41,4,Delezo,0,1,0.639,2,2
1,1,21,2,2,42,1,Stürmer,1,1,0.543,2,1
1,1,21,2,2,43,3,Irhalt,0,1,1.734,1,2
1,1,21,2,2,44,1,Verband,1,1,0.606,2,1
1,1,21,2,2,45,3,Mugrint,0,1,0.679,1,2
1,1,21,2,2,46,2,Finesse,1,1,1.103,1,1
1,1,21,2,2,47,4,Aeeleefg,0,1,0.583,2,2
1,1,21,2,2,48,2,mucken,1,1,0.574,1,1
1,1,21,2,2,49,1,Zeitung,1,1,0.503,2,1
1,1,21,2,2,50,1,befassen,1,1,1.35,2,1
1,1,21,2,2,51,2,Hochofen,1,1,0.535,1,1
1,1,21,2,2,52,2,Seher,1,1,0.566,1,1
1,1,21,2,2,53,1,stimmen,1,1,0.494,2,1
1,1,21,2,2,54,1,Geist,1,1,0.486,2,1
1,1,21,2,2,55,1,Pflicht,1,1,0.487,2,1
1,1,21,2,2,56,1,Jubiläum,1,1,0.567,2,1
1,1,21,2,2,57,3,giregult,0,1,3.863,1,2
1,1,21,2,2,58,4,Eärsa,0,1,0.766,2,2
1,1,21,2,2,59,4,uotmiek,0,1,0.527,2,2
1,1,21,2,2,60,2,verarmt,1,1,0.846,1,1
1,1,21,2,2,61,3,gazohlt,0,1,0.631,1,2
1,1,21,2,2,62,2,münzen,0,0,1.845,1,1
1,1,21,2,2,63,3,Onzoagor,0,1,0.838,1,2
1,1,21,2,2,64,3,umwerbon,0,1,1.486,1,2
1,1,21,2,2,65,1,bereit,1,1,0.653,2,1
1,1,21,2,2,66,3,Arlabnus,0,1,0.558,1,2
1,1,21,2,2,67,1,Sprecher,1,1,0.503,2,1
1,1,21,2,2,68,2,Zögling,0,0,2.334,1,1
1,1,21,2,2,69,3,Imblem,0,1,0.799,1,2
1,1,21,2,2,70,1,schauen,1,1,0.582,2,1
1,1,21,2,2,71,2,Hertz,1,1,1.062,1,1
1,1,21,2,2,72,3,Breok,0,1,0.606,1,2
1,1,21,2,2,73,3,vurebar,0,1,0.584,1,2
1,1,21,2,2,74,4,Fücfsen,0,1,0.703,2,2
1,1,21,2,2,75,4,eeuii,0,1,0.503,2,2
1,1,21,2,2,76,3,Gifocht,0,1,0.534,1,2
1,1,21,2,2,77,4,Fäfriee,0,1,0.51,2,2
1,1,21,2,2,78,4,mteädg,0,1,0.462,2,2
1,1,21,2,2,79,3,gudenken,0,1,0.775,1,2
1,1,21,2,2,80,4,Tuxtcer,0,1,0.455,2,2
1,1,21,2,2,81,1,Fläche,1,1,0.511,2,1
1,1,21,2,2,82,3,Wocht,0,1,0.727,1,2
1,1,21,2,2,83,1,auslösen,1,1,0.583,2,1
1,1,21,2,2,84,1,Waffe,1,1,0.509,2,1
1,1,21,2,2,85,4,Nlgpkih,0,1,0.655,2,2
1,1,21,2,2,86,1,national,1,1,0.606,2,1
1,1,21,2,2,87,2,Bürozeit,1,1,0.502,1,1
1,1,21,2,2,88,3,rohrund,0,1,1.311,1,2
1,1,21,2,2,89,4,Onlpoec,0,1,0.647,2,2
1,1,21,2,2,90,3,zeirin,0,1,0.751,1,2
1,1,21,2,2,91,3,Baroruem,0,1,0.573,1,2
1,1,21,2,2,92,4,Faictr,0,1,0.462,2,2
1,1,21,2,2,93,2,Foton,0,0,1.111,1,1
1,1,21,2,2,94,3,Niffa,0,1,0.566,1,2
1,1,21,2,2,95,3,Taesind,0,1,0.566,1,2
1,1,21,2,2,96,3,Zirfall,0,1,0.511,1,2
1,1,21,2,2,97,3,gilugt,0,1,0.495,1,2
1,1,21,2,2,98,1,Forscher,1,1,0.543,2,1
1,1,21,2,2,99,2,Abzweig,1,1,0.855,1,1
1,1,21,2,2,100,1,britisch,1,1,0.614,2,1
1,1,21,2,2,101,2,Zivil,1,1,0.591,1,1
1,1,21,2,2,102,1,darunter,1,1,0.527,2,1
1,1,21,2,2,103,1,Firma,1,1,0.502,2,1
1,1,21,2,2,104,2,Populist,1,1,0.759,1,1
1,1,21,2,3,5,4,Pinsial,0,1,0.999,2,2
1,1,21,2,3,6,2,Dritter,1,1,0.526,1,1
1,1,21,2,3,7,4,Sreheii,0,1,0.494,2,2
1,1,21,2,3,8,4,lnzte,0,1,0.655,2,2
1,1,21,2,3,9,1,Angabe,1,1,0.51,2,1
1,1,21,2,3,10,3,nachtug,0,1,0.735,1,2
1,1,21,2,3,11,2,Notwehr,1,1,0.519,1,1
1,1,21,2,3,12,3,Scharbu,0,1,0.607,1,2
1,1,21,2,3,13,4,Vepte,0,1,0.67,2,2
1,1,21,2,3,14,3,rustlis,0,1,0.719,1,2
1,1,21,2,3,15,4,Buseein,0,1,0.639,2,2
1,1,21,2,3,16,1,Prüfung,1,1,0.615,2,1
1,1,21,2,3,17,1,Kultur,1,1,0.511,2,1
1,1,21,2,3,18,3,Wultcup,0,1,0.965,1,2
1,1,21,2,3,19,3,Blusar,0,1,0.695,1,2
1,1,21,2,3,20,1,Kanzler,1,1,0.646,2,1
1,1,21,2,3,21,2,Türkin,1,1,0.751,1,1
1,1,21,2,3,22,1,bedrohen,1,1,0.599,2,1
1,1,21,2,3,23,1,Einsatz,1,1,0.494,2,1
1,1,21,2,3,24,4,Zauguis,0,1,0.695,2,2
1,1,21,2,3,25,4,Zttgretd,0,1,0.559,2,2
1,1,21,2,3,26,3,unstobal,0,1,0.838,1,2
1,1,21,2,3,27,1,bestehen,1,1,0.542,2,1
1,1,21,2,3,28,1,Leitung,1,1,0.486,2,1
1,1,21,2,3,29,2,Sandale,1,1,0.591,1,1
1,1,21,2,3,30,4,Kerdpr,0,1,0.534,2,2
1,1,21,2,3,31,4,aiteua,0,1,0.623,2,2
1,1,21,2,3,32,1,spannend,1,1,0.551,2,1
1,1,21,2,3,33,4,Pmlnep,0,1,0.478,2,2
1,1,21,2,3,34,3,Stirch,0,1,0.735,1,2
1,1,21,2,3,35,2,Wandbild,1,1,0.543,1,1
1,1,21,2,3,36,2,Herrgott,1,1,0.798,1,1
1,1,21,2,3,37,3,Zweng,0,1,0.966,1,2
1,1,21,2,3,38,4,Veeosao,0,1,0.495,2,2
1,1,21,2,3,39,1,Institut,1,1,0.831,2,1
1,1,21,2,3,40,1,Station,1,1,0.671,2,1
1,1,21,2,3,41,1,Premiere,1,1,0.534,2,1
1,1,21,2,3,42,1,General,1,1,0.519,2,1
1,1,21,2,3,43,3,knickig,1,0,0.51,1,2
1,1,21,2,3,44,2,branden,0,0,1.975,1,1
1,1,21,2,3,45,2,Dreher,1,1,0.653,1,1
1,1,21,2,3,46,3,Imbargu,0,1,0.743,1,2
1,1,21,2,3,47,2,wohlauf,1,1,0.663,1,1
1,1,21,2,3,48,4,Aegsrrn,0,1,0.551,2,2
1,1,21,2,3,49,3,Uurpert,0,1,0.558,1,2
1,1,21,2,3,50,2,kotzen,1,1,0.591,1,1
1,1,21,2,3,51,1,drehen,1,1,0.535,2,1
1,1,21,2,3,52,3,Baaplutz,0,1,0.655,1,2
1,1,21,2,3,53,3,Gobesch,0,1,0.759,1,2
1,1,21,2,3,54,4,aotiize,0,1,0.495,2,2
1,1,21,2,3,55,3,Slawoko,0,1,0.583,1,2
1,1,21,2,3,56,2,Unterarm,1,1,0.622,1,1
1,1,21,2,3,57,1,Element,1,1,0.519,2,1
1,1,21,2,3,58,3,Oewuuß,0,1,0.559,1,2
1,1,21,2,3,59,1,fließen,1,1,0.83,2,1
1,1,21,2,3,60,2,Liebende,1,1,1.11,1,1
1,1,21,2,3,61,1,besuchen,1,1,0.583,2,1
1,1,21,2,3,62,3,bogrinzt,0,1,0.559,1,2
1,1,21,2,3,63,2,Walze,1,1,0.862,1,1
1,1,21,2,3,64,1,maximal,1,1,0.582,2,1
1,1,21,2,3,65,2,Äquator,1,1,0.588,1,1
1,1,21,2,3,66,4,kykhoo,0,1,0.574,2,2
1,1,21,2,3,67,4,Bmrrsr,0,1,0.534,2,2
1,1,21,2,3,68,3,uburgruß,0,1,0.718,1,2
1,1,21,2,3,69,3,Sporbech,0,1,0.927,1,2
1,1,21,2,3,70,2,glasklar,1,1,0.75,1,1
1,1,21,2,3,71,2,Hochbau,1,1,0.542,1,1
1,1,21,2,3,72,2,trudeln,1,1,0.655,1,1
1,1,21,2,3,73,2,Rangelei,1,1,0.829,1,1
1,1,21,2,3,74,4,Lngsie,0,1,0.542,2,2
1,1,21,2,3,75,2,zeitig,1,1,0.551,1,1
1,1,21,2,3,76,2,Windböe,1,1,0.743,1,1
1,1,21,2,3,77,2,purzeln,1,1,0.591,1,1
1,1,21,2,3,78,4,Booksu,0,1,0.583,2,2
1,1,21,2,3,79,3,Athlot,0,1,1.022,1,2
1,1,21,2,3,80,4,Wüßstr,0,1,0.919,2,2
1,1,21,2,3,81,3,strockin,0,1,0.878,1,2
1,1,21,2,3,82,4,Ghcaraf,0,1,0.455,2,2
1,1,21,2,3,83,3,Branch,0,1,1.607,1,2
1,1,21,2,3,84,3,aranasch,0,1,1.063,1,2
1,1,21,2,3,85,1,genau,1,1,0.526,2,1
1,1,21,2,3,86,4,Propeid,0,1,1.022,2,2
1,1,21,2,3,87,4,Glrureb,0,1,0.607,2,2
1,1,21,2,3,88,1,erneut,1,1,0.559,2,1
1,1,21,2,3,89,1,Aussage,1,1,0.502,2,1
1,1,21,2,3,90,2,Methan,1,1,0.855,1,1
1,1,21,2,3,91,1,Antwort,1,1,0.613,2,1
1,1,21,2,3,92,2,Sediment,1,1,0.654,1,1
1,1,21,2,3,93,4,Giomaee,0,1,0.542,2,2
1,1,21,2,3,94,1,wirklich,1,1,0.582,2,1
1,1,21,2,3,95,3,stackun,0,1,0.814,1,2
1,1,21,2,3,96,1,Autobahn,1,1,0.519,2,1
1,1,21,2,3,97,3,Onoform,0,1,0.719,1,2
1,1,21,2,3,98,4,Cerwai,0,1,0.535,2,2
1,1,21,2,3,99,4,Oipdrau,0,1,0.598,2,2
1,1,21,2,3,100,3,bihmisch,0,1,0.783,1,2
1,1,21,2,3,101,1,räumen,1,1,0.493,2,1
1,1,21,2,3,102,4,Zablwxg,0,1,0.455,2,2
1,1,21,2,3,103,2,Affront,0,0,1.342,1,1
1,1,21,2,3,104,2,Landwehr,1,1,0.694,1,1
1,1,21,2,4,5,4,Oetthns,0,1,0.526,2,2
1,1,21,2,4,6,3,areffnut,0,1,0.526,1,2
1,1,21,2,4,7,4,Hortedn,0,1,0.535,2,2
1,1,21,2,4,8,1,Leiter,1,1,0.55,2,1
1,1,21,2,4,9,3,engewuss,0,1,0.781,1,2
1,1,21,2,4,10,2,Rührung,1,1,0.694,1,1
1,1,21,2,4,11,2,Anmut,1,1,1.038,1,1
1,1,21,2,4,12,2,Passwort,1,1,0.486,1,1
1,1,21,2,4,13,1,rechnen,1,1,0.454,2,1
1,1,21,2,4,14,2,Isländer,1,1,0.583,1,1
1,1,21,2,4,15,4,Eoslle,0,1,0.606,2,2
1,1,21,2,4,16,1,treiben,1,1,0.526,2,1
1,1,21,2,4,17,1,künftig,1,1,0.479,2,1
1,1,21,2,4,18,2,rieseln,1,1,0.518,1,1
1,1,21,2,4,19,2,pusten,1,1,0.535,1,1
1,1,21,2,4,20,2,seiden,1,1,0.63,1,1
1,1,21,2,4,21,1,zunächst,1,1,0.51,2,1
1,1,21,2,4,22,3,fonster,0,1,0.719,1,2
1,1,21,2,4,23,3,Bofutt,0,1,0.686,1,2
1,1,21,2,4,24,4,Meoierk,0,1,0.598,2,2
1,1,21,2,4,25,4,sitdznh,0,1,0.55,2,2
1,1,21,2,4,26,2,Bauform,1,1,0.582,1,1
1,1,21,2,4,27,4,bekssht,0,1,0.727,2,2
1,1,21,2,4,28,3,zahllas,0,1,0.63,1,2
1,1,21,2,4,29,2,eintönig,1,1,0.854,1,1
1,1,21,2,4,30,3,Modume,0,1,0.782,1,2
1,1,21,2,4,31,4,Clietint,0,1,0.55,2,2
1,1,21,2,4,32,3,varluson,0,1,0.623,1,2
1,1,21,2,4,33,3,welleg,0,1,0.774,1,2
1,1,21,2,4,34,1,englisch,1,1,1.031,2,1
1,1,21,2,4,35,3,Vorgohen,0,1,0.663,1,2
1,1,21,2,4,36,2,Anonymus,1,1,1.239,1,1
1,1,21,2,4,37,2,Zombie,1,1,0.799,1,1
1,1,21,2,4,38,1,Provinz,1,1,0.543,2,1
1,1,21,2,4,39,4,Önhnunn,0,1,0.559,2,2
1,1,21,2,4,40,3,Fonni,0,1,0.727,1,2
1,1,21,2,4,41,2,Drohne,1,1,0.606,1,1
1,1,21,2,4,42,4,Aarkarh,0,1,0.51,2,2
1,1,21,2,4,43,4,Nepuru,0,1,0.734,2,2
1,1,21,2,4,44,3,Forbung,0,1,0.71,1,2
1,1,21,2,4,45,1,speziell,1,1,0.63,2,1
1,1,21,2,4,46,1,Debatte,1,1,0.59,2,1
1,1,21,2,4,47,3,Kalnar,0,1,0.663,1,2
1,1,21,2,4,48,3,obhikan,0,1,0.551,1,2
1,1,21,2,4,49,1,ausgeben,1,1,0.559,2,1
1,1,21,2,4,50,4,Fauetr,0,1,0.878,2,2
1,1,21,2,4,51,2,Scharia,1,1,0.735,1,1
1,1,21,2,4,52,3,Wuhlarin,0,1,0.559,1,2
1,1,21,2,4,53,4,gokbeä,0,1,0.438,2,2
1,1,21,2,4,54,1,Aufbau,1,1,0.535,2,1
1,1,21,2,4,55,2,Hocker,1,1,0.815,1,1
1,1,21,2,4,56,3,tropfin,0,1,0.903,1,2
1,1,21,2,4,57,3,ingitin,0,1,0.919,1,2
1,1,21,2,4,58,3,Pirkhaes,0,1,0.566,1,2
1,1,21,2,4,59,4,Ealslo,0,1,0.39,2,2
1,1,21,2,4,60,4,Wtedht,0,1,0.423,2,2
1,1,21,2,4,61,4,arnlagc,0,1,0.502,2,2
1,1,21,2,4,62,1,Ergebnis,1,1,0.566,2,1
1,1,21,2,4,63,2,kauern,1,1,0.734,1,1
1,1,21,2,4,64,1,rechts,1,1,0.509,2,1
1,1,21,2,4,65,1,aufgeben,1,1,0.479,2,1
1,1,21,2,4,66,1,Galerie,1,1,0.574,2,1
1,1,21,2,4,67,2,Spinner,1,1,0.519,1,1
1,1,21,2,4,68,4,Suebsn,0,1,0.671,2,2
1,1,21,2,4,69,1,Fußball,1,1,0.518,2,1
1,1,21,2,4,70,2,blocken,1,1,0.646,1,1
1,1,21,2,4,71,3,voartel,0,1,0.709,1,2
1,1,21,2,4,72,1,Sorge,1,1,0.511,2,1
1,1,21,2,4,73,1,Freude,1,1,0.567,2,1
1,1,21,2,4,74,4,Tetkgr,0,1,0.606,2,2
1,1,21,2,4,75,3,Uenworf,0,1,0.694,1,2
1,1,21,2,4,76,2,Vignette,1,1,0.679,1,1
1,1,21,2,4,77,4,Ieagtee,0,1,0.494,2,2
1,1,21,2,4,78,3,Obwihr,0,1,0.615,1,2
1,1,21,2,4,79,1,Sendung,1,1,0.543,2,1
1,1,21,2,4,80,4,Bridfh,0,1,0.574,2,2
1,1,21,2,4,81,2,akkurat,1,1,0.917,1,1
1,1,21,2,4,82,4,Tisai,0,1,0.511,2,2
1,1,21,2,4,83,4,Leetlg,0,1,0.607,2,2
1,1,21,2,4,84,2,witzeln,1,1,0.63,1,1
1,1,21,2,4,85,4,Dbemwsr,0,1,0.518,2,2
1,1,21,2,4,86,4,Sseailu,0,1,0.486,2,2
1,1,21,2,4,87,3,Spirgal,0,1,1.181,1,2
1,1,21,2,4,88,1,löschen,1,1,0.942,2,1
1,1,21,2,4,89,3,keppin,0,1,1.213,1,2
1,1,21,2,4,90,2,bewahrt,1,1,0.558,1,1
1,1,21,2,4,91,2,Versager,1,1,0.717,1,1
1,1,21,2,4,92,1,stehlen,1,1,0.646,2,1
1,1,21,2,4,93,2,Zoologie,1,1,0.694,1,1
1,1,21,2,4,94,3,Wiashoot,0,1,0.783,1,2
1,1,21,2,4,95,4,Surkdfn,0,1,0.478,2,2
1,1,21,2,4,96,2,untätig,1,1,0.574,1,1
1,1,21,2,4,97,1,Streit,1,1,0.598,2,1
1,1,21,2,4,98,3,Ehrgaiz,0,1,0.766,1,2
1,1,21,2,4,99,1,daraus,1,1,0.702,2,1
1,1,21,2,4,100,1,handeln,1,1,0.567,2,1
1,1,21,2,4,101,2,klimmen,1,1,1.109,1,1
1,1,21,2,4,102,1,jährlich,1,1,0.534,2,1
1,1,21,2,4,103,4,Wkitei,0,1,0.487,2,2
1,1,21,2,4,104,3,fressun,0,1,0.734,1,2
1,1,21,2,5,5,1,Dienst,1,1,0.582,2,1
1,1,21,2,5,6,2,Nachrede,1,1,0.543,1,1
1,1,21,2,5,7,2,driften,1,1,0.831,1,1
1,1,21,2,5,8,1,Gewalt,1,1,0.455,2,1
1,1,21,2,5,9,3,Merkar,0,1,0.67,1,2
1,1,21,2,5,10,1,längst,1,1,0.494,2,1
1,1,21,2,5,11,4,Petrzi,0,1,0.591,2,2
1,1,21,2,5,12,4,Hueiat,0,1,0.518,2,2
1,1,21,2,5,13,2,immun,1,1,0.687,1,1
1,1,21,2,5,14,3,besassen,0,1,0.887,1,2
1,1,21,2,5,15,2,Gelübde,0,0,0.575,1,1
1,1,21,2,5,16,4,Sreacun,0,1,0.615,2,2
1,1,21,2,5,17,2,schmoren,1,1,0.614,1,1
1,1,21,2,5,18,2,ducken,1,1,0.719,1,1
1,1,21,2,5,19,4,Hohees,0,1,0.631,2,2
1,1,21,2,5,20,4,Drnsctg,0,1,0.653,2,2
1,1,21,2,5,21,3,Krosis,0,1,0.718,1,2
1,1,21,2,5,22,1,Friedhof,1,1,0.678,2,1
1,1,21,2,5,23,4,Bihrs,0,1,0.511,2,2
1,1,21,2,5,24,1,Franzose,1,1,0.678,2,1
1,1,21,2,5,25,3,Koisirun,0,1,0.646,1,2
1,1,21,2,5,26,2,pompös,1,1,0.839,1,1
1,1,21,2,5,27,2,Selige,1,1,0.598,1,1
1,1,21,2,5,28,2,Patron,1,1,0.638,1,1
1,1,21,2,5,29,2,röhren,1,1,0.455,1,1
1,1,21,2,5,30,3,dipan,0,1,0.581,1,2
1,1,21,2,5,31,3,Moarur,0,1,0.695,1,2
1,1,21,2,5,32,4,scaoonr,0,1,0.527,2,2
1,1,21,2,5,33,3,barehen,0,1,0.678,1,2
1,1,21,2,5,34,3,fettern,0,1,2.311,1,2
1,1,21,2,5,35,3,Garagi,0,1,0.791,1,2
1,1,21,2,5,36,2,Schließe,1,1,1.654,1,1
1,1,21,2,5,37,3,grondeos,0,1,0.999,1,2
1,1,21,2,5,38,2,Proton,1,1,0.967,1,1
1,1,21,2,5,39,1,fassen,1,1,0.551,2,1
1,1,21,2,5,40,2,Nachfahr,1,1,2.455,1,1
1,1,21,2,5,41,1,Gegner,1,1,0.591,2,1
1,1,21,2,5,42,1,Vorhaben,1,1,0.621,2,1
1,1,21,2,5,43,4,esese,0,1,0.727,2,2
1,1,21,2,5,44,1,Tempo,1,1,0.663,2,1
1,1,21,2,5,45,2,anleiten,1,1,0.599,1,1
1,1,21,2,5,46,2,obenauf,1,1,0.862,1,1
1,1,21,2,5,47,1,übrigens,1,1,0.839,2,1
1,1,21,2,5,48,4,Rrdteai,0,1,0.55,2,2
1,1,21,2,5,49,3,apropus,0,1,1.503,1,2
1,1,21,2,5,50,4,Datulen,0,1,0.806,2,2
1,1,21,2,5,51,4,Lyriut,0,1,0.871,2,2
1,1,21,2,5,52,2,gesegnet,1,1,0.535,1,1
1,1,21,2,5,53,1,hessisch,1,1,0.463,2,1
1,1,21,2,5,54,4,Jerecrk,0,1,0.567,2,2
1,1,21,2,5,55,2,Rouge,1,1,0.727,1,1
1,1,21,2,5,56,4,Gaftf,0,1,0.478,2,2
1,1,21,2,5,57,2,Hochwald,1,1,0.527,1,1
1,1,21,2,5,58,2,Zerrung,1,1,0.63,1,1
1,1,21,2,5,59,3,Spuzoas,0,1,0.535,1,2
1,1,21,2,5,60,4,Riiobre,0,1,0.558,2,2
1,1,21,2,5,61,4,Cejsti,0,1,0.471,2,2
1,1,21,2,5,62,1,gerecht,1,1,0.662,2,1
1,1,21,2,5,63,1,Gedanke,1,1,0.59,2,1
1,1,21,2,5,64,4,beifun,0,1,0.655,2,2
1,1,21,2,5,65,2,Wahlurne,1,1,0.903,1,1
1,1,21,2,5,66,4,Dmlutlr,0,1,0.478,2,2
1,1,21,2,5,67,2,ackern,1,1,0.742,1,1
1,1,21,2,5,68,2,Hofstaat,1,1,0.743,1,1
1,1,21,2,5,69,3,Glauchi,0,1,0.56,1,2
1,1,21,2,5,70,3,Prepst,0,1,0.758,1,2
1,1,21,2,5,71,4,marlsnn,0,1,0.534,2,2
1,1,21,2,5,72,3,binotogt,0,1,1.199,1,2
1,1,21,2,5,73,1,Objekt,1,1,0.527,2,1
1,1,21,2,5,74,3,darlogen,0,1,0.71,1,2
1,1,21,2,5,75,4,Pulpeu,0,1,0.606,2,2
1,1,21,2,5,76,4,näseib,0,1,0.583,2,2
1,1,21,2,5,77,1,Fenster,1,1,0.526,2,1
1,1,21,2,5,78,1,Spieltag,1,1,0.535,2,1
1,1,21,2,5,79,4,Gadesn,0,1,0.701,2,2
1,1,21,2,5,80,3,fangaort,0,1,0.663,1,2
1,1,21,2,5,81,1,Russland,1,1,0.551,2,1
1,1,21,2,5,82,3,Dremutak,0,1,0.791,1,2
1,1,21,2,5,83,3,Konnun,0,1,0.846,1,2
1,1,21,2,5,84,1,Urteil,1,1,0.551,2,1
1,1,21,2,5,85,1,begrüßen,1,1,0.551,2,1
1,1,21,2,5,86,3,Handbich,0,1,0.895,1,2
1,1,21,2,5,87,4,röknaorn,0,1,0.846,2,2
1,1,21,2,5,88,3,Rummal,0,1,0.791,1,2
1,1,21,2,5,89,2,Dünger,1,1,0.527,1,1
1,1,21,2,5,90,3,Hackiy,0,1,0.527,1,2
1,1,21,2,5,91,1,Fraktion,1,1,0.637,2,1
1,1,21,2,5,92,3,ristag,0,1,0.646,1,2
1,1,21,2,5,93,2,flehen,1,1,0.654,1,1
1,1,21,2,5,94,1,Verlust,1,1,0.668,2,1
1,1,21,2,5,95,1,stören,1,1,0.463,2,1
1,1,21,2,5,96,4,Eobtkk,0,1,0.686,2,2
1,1,21,2,5,97,3,ibhangan,0,1,0.599,1,2
1,1,21,2,5,98,1,Tabelle,1,1,0.495,2,1
1,1,21,2,5,99,3,Bandu,0,1,0.646,1,2
1,1,21,2,5,100,4,Orflek,0,1,0.639,2,2
1,1,21,2,5,101,1,öffnen,1,1,0.534,2,1
1,1,21,2,5,102,1,Radio,1,1,0.503,2,1
1,1,21,2,5,103,2,Dämmung,1,1,0.487,1,1
1,1,21,2,5,104,4,Köitltl,0,1,0.543,2,2
1,1,21,2,6,5,2,Schmelz,1,1,0.494,1,1
1,1,21,2,6,6,3,Prelleng,0,1,0.719,1,2
1,1,21,2,6,7,1,Chance,1,1,0.495,2,1
1,1,21,2,6,8,3,bedeont,0,1,0.623,1,2
1,1,21,2,6,9,4,Aunksse,0,1,0.566,2,2
1,1,21,2,6,10,3,nirvon,0,1,0.463,1,2
1,1,21,2,6,11,4,Rolaareg,0,1,0.534,2,2
1,1,21,2,6,12,1,Wunder,1,1,0.535,2,1
1,1,21,2,6,13,1,Bewegung,1,1,0.662,2,1
1,1,21,2,6,14,1,Auskunft,1,1,0.567,2,1
1,1,21,2,6,15,3,Pusseun,0,1,0.615,1,2
1,1,21,2,6,16,4,Suhree,0,1,0.518,2,2
1,1,21,2,6,17,4,Foarin,0,1,0.542,2,2
1,1,21,2,6,18,1,gebären,1,1,0.519,2,1
1,1,21,2,6,19,2,schwanen,1,1,0.831,1,1
1,1,21,2,6,20,4,Ruoszsn,0,1,0.638,2,2
1,1,21,2,6,21,1,steigern,1,1,1.031,2,1
1,1,21,2,6,22,4,Leslva,0,1,0.534,2,2
1,1,21,2,6,23,3,varnotzt,0,1,0.543,1,2
1,1,21,2,6,24,1,gesetzt,1,1,0.694,2,1
1,1,21,2,6,25,3,Rungon,0,1,0.686,1,2
1,1,21,2,6,26,2,Seebühne,1,1,0.591,1,1
1,1,21,2,6,27,2,Deckname,1,1,0.671,1,1
1,1,21,2,6,28,1,benutzen,1,1,0.535,2,1
1,1,21,2,6,29,3,Schwin,0,1,0.59,1,2
1,1,21,2,6,30,1,hängen,1,1,0.767,2,1
1,1,21,2,6,31,3,Booort,0,1,0.654,1,2
1,1,21,2,6,32,4,Öömirie,0,1,0.67,2,2
1,1,21,2,6,33,2,Ersuchen,1,1,0.615,1,1
1,1,21,2,6,34,1,Mangel,1,1,0.582,2,1
1,1,21,2,6,35,2,Topform,1,1,0.559,1,1
1,1,21,2,6,36,3,ibwindan,0,1,0.598,1,2
1,1,21,2,6,37,3,hektusch,0,1,0.534,1,2
1,1,21,2,6,38,3,wedurch,0,1,0.95,1,2
1,1,21,2,6,39,4,Wiideod,0,1,0.494,2,2
1,1,21,2,6,40,4,aifirc,0,1,0.487,2,2
1,1,21,2,6,41,4,Taashe,0,1,0.575,2,2
1,1,21,2,6,42,1,blicken,1,1,0.591,2,1
1,1,21,2,6,43,1,zunehmen,1,1,0.558,2,1
1,1,21,2,6,44,2,erwehren,1,1,0.527,1,1
1,1,21,2,6,45,3,Retwoin,0,1,0.614,1,2
1,1,21,2,6,46,1,Nation,1,1,0.687,2,1
1,1,21,2,6,47,2,Geysir,0,0,0.623,1,1
1,1,21,2,6,48,2,putzig,1,1,0.943,1,1
1,1,21,2,6,49,2,konfus,0,0,0.582,1,1
1,1,21,2,6,50,2,Zwinger,1,1,0.814,1,1
1,1,21,2,6,51,2,Blümchen,1,1,0.542,1,1
1,1,21,2,6,52,3,batiabun,0,1,0.638,1,2
1,1,21,2,6,53,2,traben,1,1,0.75,1,1
1,1,21,2,6,54,1,Eintritt,1,1,0.519,2,1
1,1,21,2,6,55,3,Enret,0,1,0.679,1,2
1,1,21,2,6,56,3,Spazeul,0,1,0.726,1,2
1,1,21,2,6,57,2,vertieft,1,1,0.774,1,1
1,1,21,2,6,58,1,Meinung,1,1,0.599,2,1
1,1,21,2,6,59,2,ranken,1,1,1.223,1,1
1,1,21,2,6,60,3,waltlich,0,1,1.143,1,2
1,1,21,2,6,61,4,senban,0,1,0.67,2,2
1,1,21,2,6,62,4,Lafghs,0,1,0.582,2,2
1,1,21,2,6,63,3,Iptumist,0,1,0.55,1,2
1,1,21,2,6,64,4,Uahnnier,0,1,0.559,2,2
1,1,21,2,6,65,4,Bußpten,0,1,0.767,2,2
1,1,21,2,6,66,1,Aufgabe,1,1,0.526,2,1
1,1,21,2,6,67,4,hetder,0,1,0.75,2,2
1,1,21,2,6,68,1,fahren,1,1,0.647,2,1
1,1,21,2,6,69,3,wahmuteg,0,1,0.582,1,2
1,1,21,2,6,70,4,Lnewebr,0,1,0.543,2,2
1,1,21,2,6,71,2,Billard,1,1,0.663,1,1
1,1,21,2,6,72,1,Einheit,1,1,0.759,2,1
1,1,21,2,6,73,1,Vogel,1,1,0.574,2,1
1,1,21,2,6,74,4,Kogse,0,1,0.663,2,2
1,1,21,2,6,75,3,Umperu,0,1,0.487,1,2
1,1,21,2,6,76,1,regieren,1,1,0.551,2,1
1,1,21,2,6,77,4,Pihand,0,1,0.59,2,2
1,1,21,2,6,78,4,Seotmrn,0,1,0.519,2,2
1,1,21,2,6,79,1,Struktur,1,1,0.703,2,1
1,1,21,2,6,80,4,Vonhe,0,1,0.719,2,2
1,1,21,2,6,81,2,mürrisch,1,1,0.59,1,1
1,1,21,2,6,82,1,Besuch,1,1,0.623,2,1
1,1,21,2,6,83,1,spanisch,1,1,0.799,2,1
1,1,21,2,6,84,2,Kajak,1,1,0.935,1,1
1,1,21,2,6,85,3,bawertat,0,1,0.582,1,2
1,1,21,2,6,86,2,raffen,1,1,0.526,1,1
1,1,21,2,6,87,3,Bowirb,0,1,0.639,1,2
1,1,21,2,6,88,4,Goocite,0,1,0.799,2,2
1,1,21,2,6,89,4,Vaseifa,0,1,0.734,2,2
1,1,21,2,6,90,4,kusbpr,0,1,0.567,2,2
1,1,21,2,6,91,3,sobold,0,1,0.805,1,2
1,1,21,2,6,92,3,troemun,0,1,0.527,1,2
1,1,21,2,6,93,2,Plagiat,1,1,0.662,1,1
1,1,21,2,6,94,3,gameen,0,1,0.599,1,2
1,1,21,2,6,95,4,diliaee,0,1,0.67,2,2
1,1,21,2,6,96,2,naschen,1,1,0.519,1,1
1,1,21,2,6,97,1,spüren,1,1,0.47,2,1
1,1,21,2,6,98,2,Sperma,1,1,0.59,1,1
1,1,21,2,6,99,3,ertoulun,0,1,0.495,1,2
1,1,21,2,6,100,2,Orgasmus,1,1,0.535,1,1
1,1,21,2,6,101,4,Iuururen,0,1,0.486,2,2
1,1,21,2,6,102,1,entweder,1,1,0.55,2,1
1,1,21,2,6,103,2,wehtun,1,1,0.694,1,1
1,1,21,2,6,104,2,Funkturm,1,1,0.973,1,1
1,1,21,2,7,5,2,Verlass,1,1,0.534,1,1
1,1,21,2,7,6,2,Neutron,1,1,0.55,1,1
1,1,21,2,7,7,2,Zollhaus,1,1,0.495,1,1
1,1,21,2,7,8,2,Tulpe,1,1,0.527,1,1
1,1,21,2,7,9,1,darum,1,1,0.51,2,1
1,1,21,2,7,10,2,Pulli,1,1,0.686,1,1
1,1,21,2,7,11,2,gewidmet,1,1,0.71,1,1
1,1,21,2,7,12,3,Puzza,1,0,0.431,1,2
1,1,21,2,7,13,2,Rosine,1,1,0.59,1,1
1,1,21,2,7,14,4,Grryt,0,1,0.655,2,2
1,1,21,2,7,15,1,weiblich,1,1,0.598,2,1
1,1,21,2,7,16,4,sevoet,0,1,0.847,2,2
1,1,21,2,7,17,2,Abteil,1,1,0.518,1,1
1,1,21,2,7,18,4,dhcnri,0,1,0.487,2,2
1,1,21,2,7,19,3,Hilfurin,0,1,0.871,1,2
1,1,21,2,7,20,3,Okuliguo,0,1,0.519,1,2
1,1,21,2,7,21,1,Richtung,1,1,0.51,2,1
1,1,21,2,7,22,3,Folkliri,0,1,0.51,1,2
1,1,21,2,7,23,1,Regen,1,1,0.743,2,1
1,1,21,2,7,24,4,Nbhiem,0,1,0.518,2,2
1,1,21,2,7,25,3,Omurot,0,1,0.599,1,2
1,1,21,2,7,26,2,imperial,1,1,1.655,1,1
1,1,21,2,7,27,3,Settel,0,1,1.037,1,2
1,1,21,2,7,28,4,Eelmet,0,1,0.582,2,2
1,1,21,2,7,29,2,pädophil,1,1,0.751,1,1
1,1,21,2,7,30,3,Mibil,0,1,0.614,1,2
1,1,21,2,7,31,4,anfim,0,1,0.687,2,2
1,1,21,2,7,32,1,deshalb,1,1,0.623,2,1
1,1,21,2,7,33,4,Torieg,0,1,0.615,2,2
1,1,21,2,7,34,2,schwül,1,1,1.222,1,1
1,1,21,2,7,35,4,Grpent,0,1,0.503,2,2
1,1,21,2,7,36,2,Grazie,1,1,0.639,1,1
1,1,21,2,7,37,1,jemand,1,1,0.526,2,1
1,1,21,2,7,38,4,Menaje,0,1,1.055,2,2
1,1,21,2,7,39,1,generell,1,1,0.614,2,1
1,1,21,2,7,40,1,weiter,1,1,0.47,2,1
1,1,21,2,7,41,3,Tulkshow,0,1,1.111,1,2
1,1,21,2,7,42,4,Llpagrit,0,1,0.607,2,2
1,1,21,2,7,43,4,aoine,0,1,0.566,2,2
1,1,21,2,7,44,1,intern,1,1,0.743,2,1
1,1,21,2,7,45,2,Falkner,1,1,0.911,1,1
1,1,21,2,7,46,3,Unlouhe,0,1,0.815,1,2
1,1,21,2,7,47,2,kurbeln,1,1,0.838,1,1
1,1,21,2,7,48,3,Tsonemo,0,1,0.501,1,2
1,1,21,2,7,49,4,Fnmfoi,0,1,0.574,2,2
1,1,21,2,7,50,3,Birruora,0,1,0.526,1,2
1,1,21,2,7,51,1,November,1,1,0.589,2,1
1,1,21,2,7,52,3,boigun,0,1,0.543,1,2
1,1,21,2,7,53,1,derzeit,1,1,0.583,2,1
1,1,21,2,7,54,4,tlnrneß,0,1,0.591,2,2
1,1,21,2,7,55,4,fonnrest,0,1,0.655,2,2
1,1,21,2,7,56,2,Streuung,1,1,0.894,1,1
1,1,21,2,7,57,1,Umgang,1,1,0.517,2,1
1,1,21,2,7,58,1,konkret,1,1,0.503,2,1
1,1,21,2,7,59,3,Bistzuut,0,1,0.711,1,2
1,1,21,2,7,60,2,Melker,1,1,0.654,1,1
1,1,21,2,7,61,3,Puckeng,0,1,1.055,1,2
1,1,21,2,7,62,4,Guhelz,0,1,0.854,2,2
1,1,21,2,7,63,2,Junkie,1,1,0.67,1,1
1,1,21,2,7,64,1,Keller,1,1,0.535,2,1
1,1,21,2,7,65,2,gesenkt,1,1,0.558,1,1
1,1,21,2,7,66,2,rasten,1,1,0.55,1,1
1,1,21,2,7,67,2,Kühle,1,1,0.51,1,1
1,1,21,2,7,68,4,anrkhl,0,1,0.519,2,2
1,1,21,2,7,69,4,Srbifg,0,1,0.527,2,2
1,1,21,2,7,70,1,Arbeiter,1,1,0.519,2,1
1,1,21,2,7,71,2,abblasen,1,1,0.847,1,1
1,1,21,2,7,72,4,eäslra,0,1,0.719,2,2
1,1,21,2,7,73,4,Garsra,0,1,0.67,2,2
1,1,21,2,7,74,1,Figur,1,1,0.575,2,1
1,1,21,2,7,75,1,scheinen,1,1,0.966,2,1
1,1,21,2,7,76,2,ansuchen,0,0,2.423,1,1
1,1,21,2,7,77,3,houtnah,0,1,0.695,1,2
1,1,21,2,7,78,3,Oangraff,0,1,0.526,1,2
1,1,21,2,7,79,4,Hedtran,0,1,0.591,2,2
1,1,21,2,7,80,3,Klubhias,0,1,1.071,1,2
1,1,21,2,7,81,3,statig,1,0,1.047,1,2
1,1,21,2,7,82,4,Kelftz,0,1,0.566,2,2
1,1,21,2,7,83,1,Westen,1,1,0.558,2,1
1,1,21,2,7,84,1,zitieren,1,1,0.606,2,1
1,1,21,2,7,85,2,Osmane,1,1,0.823,1,1
1,1,21,2,7,86,3,Jummor,0,1,0.646,1,2
1,1,21,2,7,87,1,Regelung,1,1,0.661,2,1
1,1,21,2,7,88,4,Drofeip,0,1,0.567,2,2
1,1,21,2,7,89,2,sprießen,1,1,0.83,1,1
1,1,21,2,7,90,1,Niveau,1,1,0.639,2,1
1,1,21,2,7,91,3,Ubbruch,0,1,0.973,1,2
1,1,21,2,7,92,4,Ssain,0,1,0.557,2,2
1,1,21,2,7,93,3,befahron,0,1,0.735,1,2
1,1,21,2,7,94,3,Deikun,0,1,0.798,1,2
1,1,21,2,7,95,2,Stallung,1,1,0.823,1,1
1,1,21,2,7,96,1,lieben,1,1,0.607,2,1
1,1,21,2,7,97,1,Ausgabe,1,1,1.358,2,1
1,1,21,2,7,98,3,sante,0,1,0.87,1,2
1,1,21,2,7,99,3,Ruttor,0,1,0.935,1,2
1,1,21,2,7,100,3,Umpuru,0,1,0.511,1,2
1,1,21,2,7,101,1,tauchen,1,1,0.575,2,1
1,1,21,2,7,102,4,Clcwja,0,1,0.574,2,2
1,1,21,2,7,103,1,wertvoll,1,1,0.655,2,1
1,1,21,2,7,104,4,Mrbuelll,0,1,0.582,2,2
1,1,21,2,8,5,3,wurum,0,1,0.59,1,2
1,1,21,2,8,6,4,Nihgh,0,1,0.486,2,2
1,1,21,2,8,7,1,somit,1,1,0.551,2,1
1,1,21,2,8,8,3,Deesal,0,1,0.551,1,2
1,1,21,2,8,9,4,Bintre,0,1,0.486,2,2
1,1,21,2,8,10,1,Sänger,1,1,0.535,2,1
1,1,21,2,8,11,2,Allgäuer,1,1,0.574,1,1
1,1,21,2,8,12,4,flpts,0,1,0.495,2,2
1,1,21,2,8,13,1,locken,1,1,0.551,2,1
1,1,21,2,8,14,3,allustar,0,1,0.751,1,2
1,1,21,2,8,15,3,Donst,0,1,0.751,1,2
1,1,21,2,8,16,2,karren,1,1,2.03,1,1
1,1,21,2,8,17,1,Schloss,1,1,0.582,2,1
1,1,21,2,8,18,3,Simme,0,1,1.007,1,2
1,1,21,2,8,19,2,düsen,1,1,0.79,1,1
1,1,21,2,8,20,3,hemugen,0,1,0.751,1,2
1,1,21,2,8,21,3,prochteg,0,1,0.695,1,2
1,1,21,2,8,22,2,Friese,1,1,0.638,1,1
1,1,21,2,8,23,2,Präambel,1,1,0.757,1,1
1,1,21,2,8,24,4,hodrln,0,1,0.51,2,2
1,1,21,2,8,25,2,Qualm,1,1,0.567,1,1
1,1,21,2,8,26,3,Stedoa,0,1,0.639,1,2
1,1,21,2,8,27,3,Axpurt,0,1,0.519,1,2
1,1,21,2,8,28,2,Mähne,1,1,0.551,1,1
1,1,21,2,8,29,1,Benutzer,1,1,0.583,2,1
1,1,21,2,8,30,1,Beweis,1,1,0.487,2,1
1,1,21,2,8,31,4,Gatdiee,0,1,0.687,2,2
1,1,21,2,8,32,3,anrackun,0,1,0.647,1,2
1,1,21,2,8,33,4,kahot,0,1,0.519,2,2
1,1,21,2,8,34,2,fruchten,1,1,1.295,1,1
1,1,21,2,8,35,2,Plasma,1,1,0.615,1,1
1,1,21,2,8,36,1,indes,1,1,0.647,2,1
1,1,21,2,8,37,1,trotzdem,1,1,0.567,2,1
1,1,21,2,8,38,2,Vehemenz,1,1,0.814,1,1
1,1,21,2,8,39,3,lablas,0,1,0.783,1,2
1,1,21,2,8,40,4,abubal,0,1,0.631,2,2
1,1,21,2,8,41,1,Moment,1,1,0.51,2,1
1,1,21,2,8,42,4,Dnitzef,0,1,0.518,2,2
1,1,21,2,8,43,3,Lutes,0,1,0.686,1,2
1,1,21,2,8,44,2,Spule,1,1,0.598,1,1
1,1,21,2,8,45,2,sandig,1,1,0.767,1,1
1,1,21,2,8,46,3,noadlech,0,1,0.543,1,2
1,1,21,2,8,47,1,Menge,1,1,0.679,2,1
1,1,21,2,8,48,2,rußen,1,1,1.71,1,1
1,1,21,2,8,49,2,Modem,0,0,0.887,1,1
1,1,21,2,8,50,4,Pefuf,0,1,0.55,2,2
1,1,21,2,8,51,4,Eotre,0,1,0.567,2,2
1,1,21,2,8,52,3,Bardauex,0,1,0.75,1,2
1,1,21,2,8,53,2,Untat,1,1,0.727,1,1
1,1,21,2,8,54,1,heuer,0,0,1.183,2,1
1,1,21,2,8,55,3,huton,0,1,0.751,1,2
1,1,21,2,8,56,3,sonneg,0,1,0.799,1,2
1,1,21,2,8,57,4,flueeo,0,1,0.639,2,2
1,1,21,2,8,58,3,Quirtil,0,1,0.879,1,2
1,1,21,2,8,59,2,ruppig,1,1,0.59,1,1
1,1,21,2,8,60,4,bttfraie,0,1,0.6,2,2
1,1,21,2,8,61,1,Unfall,1,1,0.511,2,1
1,1,21,2,8,62,4,hosane,0,1,1.047,2,2
1,1,21,2,8,63,1,weltweit,1,1,0.534,2,1
1,1,21,2,8,64,4,Hulonu,0,1,0.598,2,2
1,1,21,2,8,65,3,Funal,0,1,1.303,1,2
1,1,21,2,8,66,1,erfahren,1,1,0.663,2,1
1,1,21,2,8,67,2,klirrend,1,1,0.655,1,1
1,1,21,2,8,68,4,Kxgre,0,1,0.487,2,2
1,1,21,2,8,69,3,rintubel,0,1,0.807,1,2
1,1,21,2,8,70,4,Dekfn,0,1,0.51,2,2
1,1,21,2,8,71,4,Rekkwtlr,0,1,0.623,2,2
1,1,21,2,8,72,2,Raserei,1,1,0.613,1,1
1,1,21,2,8,73,3,blahin,0,1,0.647,1,2
1,1,21,2,8,74,4,Houehan,0,1,0.535,2,2
1,1,21,2,8,75,1,später,1,1,0.614,2,1
1,1,21,2,8,76,2,Chaussee,0,0,0.519,1,1
1,1,21,2,8,77,2,Genus,0,0,1.047,1,1
1,1,21,2,8,78,1,Kreuz,1,1,0.751,2,1
1,1,21,2,8,79,1,System,1,1,1.382,2,1
1,1,21,2,8,80,4,Tldknoe,0,1,0.551,2,2
1,1,21,2,8,81,2,Koppel,1,1,0.623,1,1
1,1,21,2,8,82,4,snfiz,0,1,0.479,2,2
1,1,21,2,8,83,1,Material,1,1,0.501,2,1
1,1,21,2,8,84,1,Sicht,1,1,0.526,2,1
1,1,21,2,8,85,2,Kompost,1,1,0.679,1,1
1,1,21,2,8,86,3,Garengol,0,1,0.926,1,2
1,1,21,2,8,87,1,Frieden,1,1,0.526,2,1
1,1,21,2,8,88,4,Rtaznsa,0,1,0.535,2,2
1,1,21,2,8,89,3,klibon,0,1,0.743,1,2
1,1,21,2,8,90,3,Rempi,0,1,0.702,1,2
1,1,21,2,8,91,1,Deutsche,1,1,0.517,2,1
1,1,21,2,8,92,3,Splut,0,1,0.511,1,2
1,1,21,2,8,93,2,jazzig,0,0,0.838,1,1
1,1,21,2,8,94,4,Dhomu,0,1,0.975,2,2
1,1,21,2,8,95,1,heben,1,1,0.647,2,1
1,1,21,2,8,96,2,Geigerin,1,1,0.551,1,1
1,1,21,2,8,97,2,heiligen,1,1,0.534,1,1
1,1,21,2,8,98,4,klzrti,0,1,0.51,2,2
1,1,21,2,8,99,3,Schonkin,0,1,0.758,1,2
1,1,21,2,8,100,1,schießen,1,1,0.574,2,1
1,1,21,2,8,101,1,Künstler,1,1,0.566,2,1
1,1,21,2,8,102,4,rolltu,0,1,0.487,2,2
1,1,21,2,8,103,4,Barkrh,0,1,0.534,2,2
1,1,21,2,8,104,1,Folge,1,1,0.582,2,1
1,1,21,3,1,5,3,Bilobong,0,1,0.487,1,2
1,1,21,3,1,6,4,Naaiwgi,0,1,0.518,2,2
1,1,21,3,1,7,2,sortiert,1,1,0.502,1,1
1,1,21,3,1,8,1,Wille,1,1,0.469,2,1
1,1,21,3,1,9,3,gewennin,0,1,0.51,1,2
1,1,21,3,1,10,4,beodil,0,1,0.445,2,2
1,1,21,3,1,11,3,Pradukut,0,1,0.605,1,2
1,1,21,3,1,12,2,Ökostrom,1,1,0.552,1,1
1,1,21,3,1,13,1,Weise,1,1,0.493,2,1
1,1,21,3,1,14,3,mahuvall,0,1,0.478,1,2
1,1,21,3,1,15,4,Urlokh,0,1,0.47,2,2
1,1,21,3,1,16,4,hicpd,0,1,0.423,2,2
1,1,21,3,1,17,3,Wohrung,0,1,0.686,1,2
1,1,21,3,1,18,3,Luoru,0,1,0.454,1,2
1,1,21,3,1,19,2,Schwedin,1,1,0.502,1,1
1,1,21,3,1,20,4,penslr,0,1,0.463,2,2
1,1,21,3,1,21,4,acaer,0,1,0.438,2,2
1,1,21,3,1,22,4,Kapdonir,0,1,0.535,2,2
1,1,21,3,1,23,4,Bhhnnu,0,1,0.43,2,2
1,1,21,3,1,24,1,Verlag,1,1,0.495,2,1
1,1,21,3,1,25,2,Idyll,0,0,0.407,1,1
1,1,21,3,1,26,1,außen,1,1,0.503,2,1
1,1,21,3,1,27,4,Fiimi,0,1,0.479,2,2
1,1,21,3,1,28,1,Drittel,1,1,0.478,2,1
1,1,21,3,1,29,1,vermuten,1,1,0.639,2,1
1,1,21,3,1,30,1,Nachbar,1,1,0.447,2,1
1,1,21,3,1,31,4,Igrhnl,0,1,0.479,2,2
1,1,21,3,1,32,1,Coach,1,1,0.55,2,1
1,1,21,3,1,33,3,Kotte,0,1,0.91,1,2
1,1,21,3,1,34,4,Brser,0,1,0.479,2,2
1,1,21,3,1,35,1,rasch,1,1,0.549,2,1
1,1,21,3,1,36,4,ueehrb,0,1,0.467,2,2
1,1,21,3,1,37,3,Zehlar,0,1,0.863,1,2
1,1,21,3,1,38,2,loten,1,1,0.869,1,1
1,1,21,3,1,39,4,Kakba,0,1,0.774,2,2
1,1,21,3,1,40,3,virhobon,0,1,0.533,1,2
1,1,21,3,1,41,2,höhnen,1,1,0.581,1,1
1,1,21,3,1,42,1,schenken,1,1,0.469,2,1
1,1,21,3,1,43,4,Miswlu,0,1,0.609,2,2
1,1,21,3,1,44,2,knurren,1,1,0.561,1,1
1,1,21,3,1,45,2,garen,1,1,0.454,1,1
1,1,21,3,1,46,2,ächzen,1,1,0.582,1,1
1,1,21,3,1,47,3,Dring,1,0,0.405,1,2
1,1,21,3,1,48,4,Eoulwn,0,1,0.566,2,2
1,1,21,3,1,49,1,Konflikt,1,1,0.494,2,1
1,1,21,3,1,50,1,erteilen,1,1,0.678,2,1
1,1,21,3,1,51,3,lohmen,0,1,0.948,1,2
1,1,21,3,1,52,4,Lahdde,0,1,0.486,2,2
1,1,21,3,1,53,3,uthesch,0,1,0.47,1,2
1,1,21,3,1,54,1,teilen,1,1,0.47,2,1
1,1,21,3,1,55,2,abwerben,1,1,0.919,1,1
1,1,21,3,1,56,4,leaap,0,1,0.486,2,2
1,1,21,3,1,57,1,kritisch,1,1,0.535,2,1
1,1,21,3,1,58,1,Gründung,1,1,0.509,2,1
1,1,21,3,1,59,2,kramen,1,1,0.686,1,1
1,1,21,3,1,60,2,Weindorf,1,1,0.486,1,1
1,1,21,3,1,61,3,Bukunnte,0,1,0.574,1,2
1,1,21,3,1,62,4,pnigkne,0,1,0.543,2,2
1,1,21,3,1,63,3,sunnun,0,1,0.598,1,2
1,1,21,3,1,64,2,Zyklon,1,1,0.654,1,1
1,1,21,3,1,65,1,Saison,1,1,0.462,2,1
1,1,21,3,1,66,4,Aamhkcue,0,1,0.51,2,2
1,1,21,3,1,67,2,geduldet,1,1,0.501,1,1
1,1,21,3,1,68,1,Medium,1,1,0.486,2,1
1,1,21,3,1,69,3,Funku,0,1,0.511,1,2
1,1,21,3,1,70,2,Kelch,1,1,0.583,1,1
1,1,21,3,1,71,1,Montag,1,1,0.447,2,1
1,1,21,3,1,72,4,Orbmgdrn,0,1,0.475,2,2
1,1,21,3,1,73,4,Fnnlsce,0,1,0.478,2,2
1,1,21,3,1,74,3,Zugibu,0,1,0.542,1,2
1,1,21,3,1,75,2,Archivar,1,1,1.318,1,1
1,1,21,3,1,76,3,Starz,0,1,1.07,1,2
1,1,21,3,1,77,1,bedeuten,1,1,0.423,2,1
1,1,21,3,1,78,3,bunutzin,0,1,0.486,1,2
1,1,21,3,1,79,1,golden,1,1,0.494,2,1
1,1,21,3,1,80,4,frcars,0,1,0.47,2,2
1,1,21,3,1,81,2,perlen,1,1,0.534,1,1
1,1,21,3,1,82,3,Scholtir,0,1,0.574,1,2
1,1,21,3,1,83,1,Sender,1,1,0.438,2,1
1,1,21,3,1,84,1,sechs,1,1,0.518,2,1
1,1,21,3,1,85,2,Erzfeind,1,1,0.487,1,1
1,1,21,3,1,86,3,Trebul,0,1,0.734,1,2
1,1,21,3,1,87,1,belasten,1,1,0.518,2,1
1,1,21,3,1,88,1,erwarten,1,1,0.462,2,1
1,1,21,3,1,89,3,Blaßo,0,1,0.55,1,2
1,1,21,3,1,90,3,Tearperk,0,1,0.79,1,2
1,1,21,3,1,91,1,umfassen,1,1,0.669,2,1
1,1,21,3,1,92,4,Asluy,0,1,0.727,2,2
1,1,21,3,1,93,2,Ballsaal,1,1,0.638,1,1
1,1,21,3,1,94,2,Adlige,1,1,0.511,1,1
1,1,21,3,1,95,3,saosun,0,1,0.623,1,2
1,1,21,3,1,96,3,Ludong,0,1,0.599,1,2
1,1,21,3,1,97,2,feien,0,0,0.822,1,1
1,1,21,3,1,98,2,Analysis,1,1,0.559,1,1
1,1,21,3,1,99,4,sillutp,0,1,0.47,2,2
1,1,21,3,1,100,2,ziellos,1,1,0.543,1,1
1,1,21,3,1,101,2,weiden,1,1,0.447,1,1
1,1,21,3,1,102,4,gtrofl,0,1,0.526,2,2
1,1,21,3,1,103,3,Onklegur,0,1,0.591,1,2
1,1,21,3,1,104,2,Mache,1,1,0.678,1,1
1,1,21,3,2,5,1,teuer,1,1,0.462,2,1
1,1,21,3,2,6,3,irnaiurn,0,1,0.471,1,2
1,1,21,3,2,7,3,Sihlo,0,1,0.494,1,2
1,1,21,3,2,8,2,Nomen,1,1,0.67,1,1
1,1,21,3,2,9,2,seicht,1,1,0.783,1,1
1,1,21,3,2,10,3,oanmileg,0,1,0.486,1,2
1,1,21,3,2,11,2,Urknall,1,1,0.606,1,1
1,1,21,3,2,12,3,tuigin,0,1,0.518,1,2
1,1,21,3,2,13,3,adual,0,1,0.822,1,2
1,1,21,3,2,14,3,Shart,0,1,0.694,1,2
1,1,21,3,2,15,2,Laute,1,1,0.814,1,1
1,1,21,3,2,16,2,käuflich,1,1,0.518,1,1
1,1,21,3,2,17,1,vorsehen,1,1,0.678,2,1
1,1,21,3,2,18,4,Reufa,0,1,0.598,2,2
1,1,21,3,2,19,2,Südsee,1,1,0.455,1,1
1,1,21,3,2,20,2,tadeln,1,1,0.518,1,1
1,1,21,3,2,21,4,Tuoöei,0,1,0.462,2,2
1,1,21,3,2,22,3,Friestal,1,0,0.853,1,2
1,1,21,3,2,23,1,dunkel,1,1,0.445,2,1
1,1,21,3,2,24,4,Hüedl,0,1,0.734,2,2
1,1,21,3,2,25,4,Derxfur,0,1,0.638,2,2
1,1,21,3,2,26,4,Fegui,0,1,0.542,2,2
1,1,21,3,2,27,3,Scola,0,1,0.791,1,2
1,1,21,3,2,28,3,Spreng,1,0,0.502,1,2
1,1,21,3,2,29,2,Violett,1,1,0.509,1,1
1,1,21,3,2,30,2,Frack,1,1,0.59,1,1
1,1,21,3,2,31,1,erheben,1,1,0.518,2,1
1,1,21,3,2,32,1,lehnen,1,1,0.454,2,1
1,1,21,3,2,33,1,indem,1,1,0.438,2,1
1,1,21,3,2,34,2,absacken,1,1,0.542,1,1
1,1,21,3,2,35,4,Fuswgl,0,1,0.549,2,2
1,1,21,3,2,36,4,sruote,0,1,0.559,2,2
1,1,21,3,2,37,1,Essen,1,1,0.43,2,1
1,1,21,3,2,38,4,Hbtipt,0,1,0.47,2,2
1,1,21,3,2,39,3,sipiret,0,1,0.567,1,2
1,1,21,3,2,40,4,Wrnkg,0,1,0.414,2,2
1,1,21,3,2,41,2,feudal,1,1,0.63,1,1
1,1,21,3,2,42,2,Barbier,1,1,0.549,1,1
1,1,21,3,2,43,1,Gerät,1,1,0.463,2,1
1,1,21,3,2,44,4,Ptncely,0,1,0.445,2,2
1,1,21,3,2,45,4,Hoilt,0,1,0.574,2,2
1,1,21,3,2,46,3,Wiggon,0,1,0.478,1,2
1,1,21,3,2,47,1,Macht,1,1,0.462,2,1
1,1,21,3,2,48,2,zahnlos,1,1,0.59,1,1
1,1,21,3,2,49,4,Zeelkgr,0,1,0.438,2,2
1,1,21,3,2,50,1,Anlage,1,1,0.446,2,1
1,1,21,3,2,51,1,schicken,1,1,0.494,2,1
1,1,21,3,2,52,3,drinnon,0,1,0.638,1,2
1,1,21,3,2,53,2,Baske,1,1,1.238,1,1
1,1,21,3,2,54,1,besetzen,1,1,0.438,2,1
1,1,21,3,2,55,2,verarmen,1,1,0.43,1,1
1,1,21,3,2,56,3,irbettun,0,1,0.47,1,2
1,1,21,3,2,57,1,stoßen,1,1,0.478,2,1
1,1,21,3,2,58,1,Bezug,1,1,0.55,2,1
1,1,21,3,2,59,4,flthcnn,0,1,0.454,2,2
1,1,21,3,2,60,2,angesagt,1,1,0.43,1,1
1,1,21,3,2,61,3,Puonu,0,1,0.582,1,2
1,1,21,3,2,62,4,Baeoronl,0,1,0.495,2,2
1,1,21,3,2,63,3,baluufen,0,1,0.549,1,2
1,1,21,3,2,64,4,Bunrrak,0,1,0.518,2,2
1,1,21,3,2,65,4,Fdlee,0,1,0.439,2,2
1,1,21,3,2,66,3,Kesse,1,0,0.454,1,2
1,1,21,3,2,67,3,Waspe,0,1,1.133,1,2
1,1,21,3,2,68,1,Konzern,1,1,0.63,2,1
1,1,21,3,2,69,1,laufend,1,1,0.542,2,1
1,1,21,3,2,70,3,Fuhrspur,0,1,0.949,1,2
1,1,21,3,2,71,1,Reise,1,1,0.47,2,1
1,1,21,3,2,72,2,Bingo,1,1,0.606,1,1
1,1,21,3,2,73,1,Stadtrat,1,1,0.478,2,1
1,1,21,3,2,74,2,Hausbau,1,1,0.462,1,1
1,1,21,3,2,75,1,ohnehin,1,1,0.495,2,1
1,1,21,3,2,76,2,Einkunft,1,1,0.43,1,1
1,1,21,3,2,77,1,bemühen,1,1,0.414,2,1
1,1,21,3,2,78,4,Bmaaii,0,1,0.462,2,2
1,1,21,3,2,79,2,Rundweg,1,1,0.471,1,1
1,1,21,3,2,80,4,Gemtt,0,1,0.461,2,2
1,1,21,3,2,81,3,engahon,0,1,0.615,1,2
1,1,21,3,2,82,4,Liliwne,0,1,0.398,2,2
1,1,21,3,2,83,2,gellen,1,1,0.47,1,1
1,1,21,3,2,84,3,Bafignas,0,1,1.27,1,2
1,1,21,3,2,85,3,Terpida,0,1,0.566,1,2
1,1,21,3,2,86,1,aufbauen,1,1,0.43,2,1
1,1,21,3,2,87,3,aenhar,0,1,0.574,1,2
1,1,21,3,2,88,3,Schmotz,0,1,0.878,1,2
1,1,21,3,2,89,2,abfällig,1,1,0.542,1,1
1,1,21,3,2,90,4,Prnme,0,1,0.446,2,2
1,1,21,3,2,91,3,Oonkaaf,0,1,0.445,1,2
1,1,21,3,2,92,1,gelangen,1,1,0.494,2,1
1,1,21,3,2,93,4,Erhiregn,0,1,0.502,2,2
1,1,21,3,2,94,4,Keüch,0,1,0.494,2,2
1,1,21,3,2,95,3,Kinzel,0,1,0.614,1,2
1,1,21,3,2,96,1,Sängerin,1,1,0.543,2,1
1,1,21,3,2,97,1,Wasser,1,1,0.502,2,1
1,1,21,3,2,98,2,Blutspur,1,1,0.646,1,1
1,1,21,3,2,99,4,Fnbirre,0,1,0.471,2,2
1,1,21,3,2,100,2,Zebra,1,1,0.447,1,1
1,1,21,3,2,101,1,Hinweis,1,1,0.509,2,1
1,1,21,3,2,102,2,timen,0,0,0.583,1,1
1,1,21,3,2,103,4,Fasstn,0,1,0.622,2,2
1,1,21,3,2,104,4,eoumurn,0,1,0.453,2,2
1,1,21,3,3,5,1,sowohl,1,1,0.534,2,1
1,1,21,3,3,6,1,doppelt,1,1,0.471,2,1
1,1,21,3,3,7,2,Bowling,1,1,0.55,1,1
1,1,21,3,3,8,4,eöigg,0,1,0.446,2,2
1,1,21,3,3,9,1,verraten,1,1,0.485,2,1
1,1,21,3,3,10,3,Reckluga,0,1,0.526,1,2
1,1,21,3,3,11,2,drunter,1,1,0.613,1,1
1,1,21,3,3,12,4,huumcu,0,1,0.91,2,2
1,1,21,3,3,13,4,aogthr,0,1,0.574,2,2
1,1,21,3,3,14,3,Hirsoel,0,1,0.686,1,2
1,1,21,3,3,15,3,Fildwig,0,1,0.566,1,2
1,1,21,3,3,16,4,uüitatg,0,1,0.406,2,2
1,1,21,3,3,17,2,Vollmond,1,1,0.462,1,1
1,1,21,3,3,18,1,heftig,1,1,0.534,2,1
1,1,21,3,3,19,3,Spuilirt,0,1,0.526,1,2
1,1,21,3,3,20,2,Affekt,1,1,0.51,1,1
1,1,21,3,3,21,2,erdulden,1,1,0.55,1,1
1,1,21,3,3,22,1,tanzen,1,1,0.414,2,1
1,1,21,3,3,23,3,Rackging,0,1,0.678,1,2
1,1,21,3,3,24,4,Begteen,0,1,0.63,2,2
1,1,21,3,3,25,4,Brlgpee,0,1,0.446,2,2
1,1,21,3,3,26,1,zugleich,1,1,0.711,2,1
1,1,21,3,3,27,2,Stadel,1,1,0.798,1,1
1,1,21,3,3,28,2,Gauner,1,1,0.854,1,1
1,1,21,3,3,29,4,Heifza,0,1,0.51,2,2
1,1,21,3,3,30,3,Bombor,0,1,0.742,1,2
1,1,21,3,3,31,2,Adelige,1,1,0.59,1,1
1,1,21,3,3,32,3,dostar,0,1,0.599,1,2
1,1,21,3,3,33,3,Juponer,0,1,0.702,1,2
1,1,21,3,3,34,2,Erbse,1,1,0.502,1,1
1,1,21,3,3,35,2,leidlich,1,1,0.502,1,1
1,1,21,3,3,36,1,benennen,1,1,0.414,2,1
1,1,21,3,3,37,2,Kopplung,1,1,0.486,1,1
1,1,21,3,3,38,3,wahrheft,1,0,1.502,1,2
1,1,21,3,3,39,2,Bürste,1,1,0.526,1,1
1,1,21,3,3,40,1,durchaus,1,1,0.438,2,1
1,1,21,3,3,41,3,Uranur,0,1,0.838,1,2
1,1,21,3,3,42,1,außerdem,1,1,0.487,2,1
1,1,21,3,3,43,4,Peras,0,1,0.549,2,2
1,1,21,3,3,44,1,Theater,1,1,0.477,2,1
1,1,21,3,3,45,1,Partie,1,1,0.637,2,1
1,1,21,3,3,46,1,Kollege,1,1,1.166,2,1
1,1,21,3,3,47,1,Insel,1,1,0.462,2,1
1,1,21,3,3,48,3,Veseta,0,1,0.791,1,2
1,1,21,3,3,49,2,Parabel,1,1,0.71,1,1
1,1,21,3,3,50,2,Borke,0,0,1.679,1,1
1,1,21,3,3,51,1,vergeben,1,1,0.454,2,1
1,1,21,3,3,52,4,Zaazai,0,1,0.534,2,2
1,1,21,3,3,53,4,hongfh,0,1,0.661,2,2
1,1,21,3,3,54,4,Brteea,0,1,0.51,2,2
1,1,21,3,3,55,2,Starre,1,1,0.678,1,1
1,1,21,3,3,56,1,Bündnis,1,1,0.63,2,1
1,1,21,3,3,57,3,Pempe,0,1,0.695,1,2
1,1,21,3,3,58,2,duschen,1,1,0.462,1,1
1,1,21,3,3,59,3,irsparon,0,1,0.718,1,2
1,1,21,3,3,60,2,umjubeln,1,1,0.686,1,1
1,1,21,3,3,61,3,Grußos,0,1,0.581,1,2
1,1,21,3,3,62,4,Hhlrctth,0,1,0.471,2,2
1,1,21,3,3,63,1,Entwurf,1,1,0.686,2,1
1,1,21,3,3,64,4,giiibs,0,1,0.543,2,2
1,1,21,3,3,65,1,Karriere,1,1,0.558,2,1
1,1,21,3,3,66,3,Thrullur,0,1,0.51,1,2
1,1,21,3,3,67,2,abholzen,1,1,0.534,1,1
1,1,21,3,3,68,1,Liter,1,1,0.471,2,1
1,1,21,3,3,69,4,ahltrmnh,0,1,0.47,2,2
1,1,21,3,3,70,1,gefallen,1,1,0.43,2,1
1,1,21,3,3,71,2,behaftet,1,1,0.589,1,1
1,1,21,3,3,72,4,Rrahtan,0,1,0.606,2,2
1,1,21,3,3,73,1,genügen,1,1,0.485,2,1
1,1,21,3,3,74,2,Befall,1,1,0.598,1,1
1,1,21,3,3,75,2,checken,1,1,0.558,1,1
1,1,21,3,3,76,4,Oeeiieo,0,1,0.502,2,2
1,1,21,3,3,77,2,Lernende,1,1,0.99,1,1
1,1,21,3,3,78,3,Hufon,0,1,0.487,1,2
1,1,21,3,3,79,3,Seudlir,0,1,0.534,1,2
1,1,21,3,3,80,3,Gubruuch,0,1,0.51,1,2
1,1,21,3,3,81,4,Girnä,0,1,0.463,2,2
1,1,21,3,3,82,1,stecken,1,1,0.502,2,1
1,1,21,3,3,83,2,Gilde,0,0,0.774,1,1
1,1,21,3,3,84,1,Praxis,1,1,0.51,2,1
1,1,21,3,3,85,4,fepinl,0,1,0.454,2,2
1,1,21,3,3,86,4,Lemsbaem,0,1,0.582,2,2
1,1,21,3,3,87,3,tagulang,0,1,0.895,1,2
1,1,21,3,3,88,3,Prifil,0,1,0.485,1,2
1,1,21,3,3,89,3,mahan,0,1,0.494,1,2
1,1,21,3,3,90,4,Mehnbu,0,1,0.47,2,2
1,1,21,3,3,91,4,Blesaclt,0,1,0.437,2,2
1,1,21,3,3,92,3,Fatniss,0,1,0.567,1,2
1,1,21,3,3,93,1,Rahmen,1,1,0.566,2,1
1,1,21,3,3,94,2,pokern,1,1,0.846,1,1
1,1,21,3,3,95,2,Erosion,1,1,0.686,1,1
1,1,21,3,3,96,3,Kellups,0,1,0.613,1,2
1,1,21,3,3,97,4,tipsish,0,1,0.758,2,2
1,1,21,3,3,98,3,Emnubos,0,1,0.503,1,2
1,1,21,3,3,99,1,sorgen,1,1,0.518,2,1
1,1,21,3,3,100,3,Sulbst,0,1,0.567,1,2
1,1,21,3,3,101,4,bfpds,0,1,0.486,2,2
1,1,21,3,3,102,4,Gytaao,0,1,0.526,2,2
1,1,21,3,3,103,4,aeuieie,0,1,0.478,2,2
1,1,21,3,3,104,1,Farbe,1,1,0.462,2,1
1,1,21,3,4,5,3,Abgabo,0,1,0.542,1,2
1,1,21,3,4,6,4,eanhtri,0,1,0.422,2,2
1,1,21,3,4,7,4,uagpea,0,1,0.439,2,2
1,1,21,3,4,8,4,Aäetple,0,1,0.494,2,2
1,1,21,3,4,9,4,Ergxrd,0,1,0.462,2,2
1,1,21,3,4,10,2,famos,0,0,0.781,1,1
1,1,21,3,4,11,1,leiden,1,1,0.815,2,1
1,1,21,3,4,12,3,eblesin,0,1,0.51,1,2
1,1,21,3,4,13,1,Anfang,1,1,0.494,2,1
1,1,21,3,4,14,2,vergnügt,1,1,0.51,1,1
1,1,21,3,4,15,3,Kolkol,0,1,0.622,1,2
1,1,21,3,4,16,4,goalzenl,0,1,0.486,2,2
1,1,21,3,4,17,2,Resort,1,1,0.591,1,1
1,1,21,3,4,18,3,trutzan,0,1,0.575,1,2
1,1,21,3,4,19,1,mitten,1,1,0.623,2,1
1,1,21,3,4,20,4,Enimszi,0,1,0.575,2,2
1,1,21,3,4,21,1,regional,1,1,0.607,2,1
1,1,21,3,4,22,3,zoigun,0,1,0.494,1,2
1,1,21,3,4,23,1,Kritik,1,1,0.59,2,1
1,1,21,3,4,24,1,fallen,1,1,0.599,2,1
1,1,21,3,4,25,1,Anwalt,1,1,0.486,2,1
1,1,21,3,4,26,4,Stlgem,0,1,0.599,2,2
1,1,21,3,4,27,2,Ausruf,1,1,0.487,1,1
1,1,21,3,4,28,1,Umgebung,1,1,0.782,2,1
1,1,21,3,4,29,1,heimisch,1,1,0.462,2,1
1,1,21,3,4,30,3,mohen,0,1,0.791,1,2
1,1,21,3,4,31,4,Aopsr,0,1,0.518,2,2
1,1,21,3,4,32,4,Mlztol,0,1,0.462,2,2
1,1,21,3,4,33,4,Susue,0,1,0.55,2,2
1,1,21,3,4,34,4,fänkfn,0,1,0.613,2,2
1,1,21,3,4,35,2,Götze,1,1,0.511,1,1
1,1,21,3,4,36,1,Landtag,1,1,0.637,2,1
1,1,21,3,4,37,2,Penis,1,1,0.549,1,1
1,1,21,3,4,38,3,Hille,1,0,0.471,1,2
1,1,21,3,4,39,2,Fachjury,1,1,0.878,1,1
1,1,21,3,4,40,1,demnach,1,1,0.686,2,1
1,1,21,3,4,41,1,Gefühl,1,1,0.502,2,1
1,1,21,3,4,42,4,Serapuel,0,1,0.758,2,2
1,1,21,3,4,43,4,paeen,0,1,0.694,2,2
1,1,21,3,4,44,4,Nrite,0,1,0.663,2,2
1,1,21,3,4,45,4,Hemtee,0,1,0.622,2,2
1,1,21,3,4,46,1,Profi,1,1,0.767,2,1
1,1,21,3,4,47,2,Orakel,1,1,0.654,1,1
1,1,21,3,4,48,1,Erfolg,1,1,0.446,2,1
1,1,21,3,4,49,1,Seele,1,1,0.447,2,1
1,1,21,3,4,50,1,Lehre,1,1,0.414,2,1
1,1,21,3,4,51,3,Boddhe,0,1,0.582,1,2
1,1,21,3,4,52,3,Lunkarin,0,1,1.03,1,2
1,1,21,3,4,53,3,Iasibing,0,1,0.502,1,2
1,1,21,3,4,54,3,birgab,0,1,0.502,1,2
1,1,21,3,4,55,2,Häufung,1,1,0.767,1,1
1,1,21,3,4,56,2,Krypta,0,0,0.438,1,1
1,1,21,3,4,57,3,Grefuk,0,1,0.55,1,2
1,1,21,3,4,58,4,Kwueie,0,1,0.438,2,2
1,1,21,3,4,59,1,Spende,1,1,0.519,2,1
1,1,21,3,4,60,3,Schaltar,0,1,0.927,1,2
1,1,21,3,4,61,3,Gifehrtu,0,1,0.518,1,2
1,1,21,3,4,62,4,gmpwch,0,1,0.431,2,2
1,1,21,3,4,63,3,Seturo,0,1,0.671,1,2
1,1,21,3,4,64,4,Sruideir,0,1,0.478,2,2
1,1,21,3,4,65,2,lustlos,1,1,0.655,1,1
1,1,21,3,4,66,4,Vureo,0,1,0.518,2,2
1,1,21,3,4,67,1,Programm,1,1,0.574,2,1
1,1,21,3,4,68,1,manchmal,1,1,0.511,2,1
1,1,21,3,4,69,2,Oberarm,1,1,0.629,1,1
1,1,21,3,4,70,4,Ttlece,0,1,0.526,2,2
1,1,21,3,4,71,1,Konzert,1,1,0.527,2,1
1,1,21,3,4,72,3,Steur,0,1,0.575,1,2
1,1,21,3,4,73,1,Sprung,1,1,0.526,2,1
1,1,21,3,4,74,2,Hänger,1,1,0.51,1,1
1,1,21,3,4,75,4,Jawloa,0,1,0.718,2,2
1,1,21,3,4,76,2,Exkurs,1,1,0.742,1,1
1,1,21,3,4,77,4,Hezbggd,0,1,0.614,2,2
1,1,21,3,4,78,2,Brache,1,1,1.63,1,1
1,1,21,3,4,79,4,uliabae,0,1,0.43,2,2
1,1,21,3,4,80,2,Wohngeld,1,1,0.495,1,1
1,1,21,3,4,81,3,Sichs,0,1,0.558,1,2
1,1,21,3,4,82,1,Serie,1,1,0.479,2,1
1,1,21,3,4,83,2,Debütant,1,1,1.007,1,1
1,1,21,3,4,84,3,bolistat,0,1,0.83,1,2
1,1,21,3,4,85,1,liberal,1,1,0.557,2,1
1,1,21,3,4,86,2,umkippen,1,1,0.566,1,1
1,1,21,3,4,87,3,beninnt,0,1,1.047,1,2
1,1,21,3,4,88,3,Anraiz,0,1,0.71,1,2
1,1,21,3,4,89,3,umpusent,0,1,0.846,1,2
1,1,21,3,4,90,4,Brnkba,0,1,0.471,2,2
1,1,21,3,4,91,2,Fünfer,1,1,0.557,1,1
1,1,21,3,4,92,2,Groll,1,1,0.686,1,1
1,1,21,3,4,93,3,Iriunt,0,1,0.718,1,2
1,1,21,3,4,94,3,hoftin,0,1,0.903,1,2
1,1,21,3,4,95,3,Binzun,0,1,0.75,1,2
1,1,21,3,4,96,2,Eiland,0,0,0.631,1,1
1,1,21,3,4,97,2,Batzen,1,1,1.198,1,1
1,1,21,3,4,98,1,Bürger,1,1,0.614,2,1
1,1,21,3,4,99,1,Freiheit,1,1,0.839,2,1
1,1,21,3,4,100,3,Collaga,0,1,0.838,1,2
1,1,21,3,4,101,2,Samurai,1,1,0.734,1,1
1,1,21,3,4,102,2,Asbest,1,1,0.67,1,1
1,1,21,3,4,103,2,Augenmaß,1,1,0.549,1,1
1,1,21,3,4,104,4,Aepseeg,0,1,0.567,2,2
1,1,21,3,5,5,3,Virzog,0,1,0.535,1,2
1,1,21,3,5,6,1,leider,1,1,0.503,2,1
1,1,21,3,5,7,4,Rnmpry,0,1,0.646,2,2
1,1,21,3,5,8,1,erfüllen,1,1,0.559,2,1
1,1,21,3,5,9,3,Jikur,0,1,0.461,1,2
1,1,21,3,5,10,3,defokt,0,1,0.671,1,2
1,1,21,3,5,11,1,helfen,1,1,0.551,2,1
1,1,21,3,5,12,2,knistern,1,1,0.599,1,1
1,1,21,3,5,13,3,Levil,0,1,1.262,1,2
1,1,21,3,5,14,4,maakoe,0,1,0.486,2,2
1,1,21,3,5,15,1,religiös,1,1,0.55,2,1
1,1,21,3,5,16,4,Meages,0,1,0.503,2,2
1,1,21,3,5,17,1,schwach,1,1,0.51,2,1
1,1,21,3,5,18,4,Ueugeoe,0,1,0.511,2,2
1,1,21,3,5,19,4,Srpuf,0,1,0.463,2,2
1,1,21,3,5,20,2,Heber,1,1,0.679,1,1
1,1,21,3,5,21,1,nutzen,1,1,0.511,2,1
1,1,21,3,5,22,1,dagegen,1,1,0.47,2,1
1,1,21,3,5,23,4,Bbldc,0,1,0.502,2,2
1,1,21,3,5,24,4,Grlhchn,0,1,0.438,2,2
1,1,21,3,5,25,1,Hilfe,1,1,0.486,2,1
1,1,21,3,5,26,3,trourug,0,1,0.479,1,2
1,1,21,3,5,27,1,Vorstand,1,1,0.639,2,1
1,1,21,3,5,28,2,wogegen,1,1,0.759,1,1
1,1,21,3,5,29,4,damti,0,1,0.599,2,2
1,1,21,3,5,30,2,Vikar,0,0,0.726,1,1
1,1,21,3,5,31,4,Öatfol,0,1,0.542,2,2
1,1,21,3,5,32,3,Kodor,0,1,0.759,1,2
1,1,21,3,5,33,3,Mutza,0,1,0.533,1,2
1,1,21,3,5,34,2,Arsen,1,1,0.679,1,1
1,1,21,3,5,35,2,Spalier,1,1,1.116,1,1
1,1,21,3,5,36,2,Anrecht,1,1,0.494,1,1
1,1,21,3,5,37,1,damit,1,1,0.486,2,1
1,1,21,3,5,38,2,Kuppe,1,1,0.414,1,1
1,1,21,3,5,39,4,unocoho,0,1,0.519,2,2
1,1,21,3,5,40,2,Liebste,1,1,0.462,1,1
1,1,21,3,5,41,3,Uxtrim,0,1,0.59,1,2
1,1,21,3,5,42,3,Varwohl,0,1,0.598,1,2
1,1,21,3,5,43,3,umleitun,0,1,0.894,1,2
1,1,21,3,5,44,2,Kelle,1,1,0.935,1,1
1,1,21,3,5,45,1,fügen,1,1,0.631,2,1
1,1,21,3,5,46,4,Kisdu,0,1,0.606,2,2
1,1,21,3,5,47,1,Haltung,1,1,0.511,2,1
1,1,21,3,5,48,2,Auslauf,1,1,0.549,1,1
1,1,21,3,5,49,3,Tucket,0,1,0.686,1,2
1,1,21,3,5,50,4,ialir,0,1,0.638,2,2
1,1,21,3,5,51,3,Zagreff,0,1,0.605,1,2
1,1,21,3,5,52,3,saitlich,0,1,0.735,1,2
1,1,21,3,5,53,3,prumpt,1,0,0.766,1,2
1,1,21,3,5,54,4,utooe,0,1,0.605,2,2
1,1,21,3,5,55,4,volhst,0,1,0.814,2,2
1,1,21,3,5,56,1,Student,1,1,0.535,2,1
1,1,21,3,5,57,4,Sulfn,0,1,0.638,2,2
1,1,21,3,5,58,1,widmen,1,1,0.59,2,1
1,1,21,3,5,59,1,Religion,1,1,0.543,2,1
1,1,21,3,5,60,1,falls,1,1,0.503,2,1
1,1,21,3,5,61,3,Jurus,0,1,0.79,1,2
1,1,21,3,5,62,4,eehkso,0,1,0.494,2,2
1,1,21,3,5,63,1,Mutter,1,1,0.486,2,1
1,1,21,3,5,64,1,warten,1,1,0.478,2,1
1,1,21,3,5,65,4,Blheeii,0,1,0.686,2,2
1,1,21,3,5,66,2,Klaue,1,1,0.614,1,1
1,1,21,3,5,67,1,Telefon,1,1,0.486,2,1
1,1,21,3,5,68,3,Brollu,0,1,0.567,1,2
1,1,21,3,5,69,2,rostig,1,1,0.727,1,1
1,1,21,3,5,70,2,bärtig,1,1,0.558,1,1
1,1,21,3,5,71,3,goeßin,0,1,0.526,1,2
1,1,21,3,5,72,2,Erlöser,1,1,0.543,1,1
1,1,21,3,5,73,2,Perser,1,1,0.591,1,1
1,1,21,3,5,74,4,rcgae,0,1,0.487,2,2
1,1,21,3,5,75,3,Luchtir,0,1,0.542,1,2
1,1,21,3,5,76,2,ungerade,1,1,0.583,1,1
1,1,21,3,5,77,2,Atrium,1,1,1.007,1,1
1,1,21,3,5,78,1,Maschine,1,1,0.478,2,1
1,1,21,3,5,79,2,Wagnis,1,1,0.71,1,1
1,1,21,3,5,80,2,Pappel,1,1,0.502,1,1
1,1,21,3,5,81,4,Aepoare,0,1,0.647,2,2
1,1,21,3,5,82,2,Ratssaal,1,1,0.575,1,1
1,1,21,3,5,83,2,bügeln,1,1,0.511,1,1
1,1,21,3,5,84,1,Verlauf,1,1,0.551,2,1
1,1,21,3,5,85,4,Ulhhemf,0,1,0.599,2,2
1,1,21,3,5,86,1,Blick,1,1,0.447,2,1
1,1,21,3,5,87,4,gulmkagh,0,1,0.509,2,2
1,1,21,3,5,88,3,Ebnohma,0,1,0.527,1,2
1,1,21,3,5,89,3,zagohun,0,1,0.39,1,2
1,1,21,3,5,90,3,Onwultan,0,1,0.447,1,2
1,1,21,3,5,91,1,Nacht,1,1,0.677,2,1
1,1,21,3,5,92,2,dosieren,1,1,0.55,1,1
1,1,21,3,5,93,4,Fegbilnu,0,1,0.646,2,2
1,1,21,3,5,94,1,Termin,1,1,0.535,2,1
1,1,21,3,5,95,3,Abtoa,0,1,0.654,1,2
1,1,21,3,5,96,4,uolvet,0,1,0.476,2,2
1,1,21,3,5,97,3,Wittlaof,0,1,0.565,1,2
1,1,21,3,5,98,2,errungen,1,1,0.613,1,1
1,1,21,3,5,99,1,loben,1,1,0.478,2,1
1,1,21,3,5,100,4,Werrane,0,1,0.758,2,2
1,1,21,3,5,101,4,Gihln,0,1,0.503,2,2
1,1,21,3,5,102,3,varfalgt,0,1,0.59,1,2
1,1,21,3,5,103,3,Frast,0,1,0.95,1,2
1,1,21,3,5,104,2,Tropf,1,1,0.526,1,1
1,1,21,3,6,5,3,punktu,0,1,0.606,1,2
1,1,21,3,6,6,4,Bepctu,0,1,0.591,2,2
1,1,21,3,6,7,1,Verkauf,1,1,0.597,2,1
1,1,21,3,6,8,3,Rumer,0,1,0.654,1,2
1,1,21,3,6,9,4,Taeokhe,0,1,0.47,2,2
1,1,21,3,6,10,1,Zweck,1,1,0.51,2,1
1,1,21,3,6,11,4,seslnon,0,1,0.47,2,2
1,1,21,3,6,12,3,Sodwast,0,1,0.679,1,2
1,1,21,3,6,13,3,enmatin,0,1,0.631,1,2
1,1,21,3,6,14,1,Gremium,1,1,0.614,2,1
1,1,21,3,6,15,4,Blaixor,0,1,0.575,2,2
1,1,21,3,6,16,1,Autor,1,1,0.519,2,1
1,1,21,3,6,17,2,wählbar,1,1,0.599,1,1
1,1,21,3,6,18,1,ausbauen,1,1,0.606,2,1
1,1,21,3,6,19,3,menumel,0,1,0.502,1,2
1,1,21,3,6,20,1,Prozess,1,1,0.518,2,1
1,1,21,3,6,21,4,Friäteit,0,1,0.487,2,2
1,1,21,3,6,22,2,Nachsatz,1,1,0.67,1,1
1,1,21,3,6,23,2,Platin,1,1,0.622,1,1
1,1,21,3,6,24,3,Orfundir,0,1,0.494,1,2
1,1,21,3,6,25,3,Luhrlung,0,1,0.654,1,2
1,1,21,3,6,26,3,arstehon,0,1,0.542,1,2
1,1,21,3,6,27,2,Reiterin,1,1,0.55,1,1
1,1,21,3,6,28,1,entfernt,1,1,0.622,2,1
1,1,21,3,6,29,3,Russart,0,1,1.038,1,2
1,1,21,3,6,30,4,Iatcet,0,1,0.479,2,2
1,1,21,3,6,31,2,kapern,1,1,0.511,1,1
1,1,21,3,6,32,2,peripher,0,0,0.455,1,1
1,1,21,3,6,33,3,Morkmal,0,1,0.783,1,2
1,1,21,3,6,34,4,Cinxzt,0,1,0.471,2,2
1,1,21,3,6,35,1,Service,1,1,0.783,2,1
1,1,21,3,6,36,1,Finale,1,1,0.495,2,1
1,1,21,3,6,37,3,Krumer,1,0,0.478,1,2
1,1,21,3,6,38,3,Lundlu,0,1,0.55,1,2
1,1,21,3,6,39,3,Tonbund,1,0,0.663,1,2
1,1,21,3,6,40,4,Eüalee,0,1,0.582,2,2
1,1,21,3,6,41,2,Kalzium,1,1,0.582,1,1
1,1,21,3,6,42,4,radat,0,1,0.838,2,2
1,1,21,3,6,43,2,belangen,1,1,0.551,1,1
1,1,21,3,6,44,2,Strunk,1,1,0.735,1,1
1,1,21,3,6,45,4,Kebraec,0,1,0.519,2,2
1,1,21,3,6,46,1,wiederum,1,1,0.838,2,1
1,1,21,3,6,47,4,Taifpü,0,1,0.494,2,2
1,1,21,3,6,48,4,revghern,0,1,0.566,2,2
1,1,21,3,6,49,3,Ritto,0,1,0.726,1,2
1,1,21,3,6,50,1,massiv,1,1,0.726,2,1
1,1,21,3,6,51,4,Apndeed,0,1,0.415,2,2
1,1,21,3,6,52,2,Retro,1,1,0.639,1,1
1,1,21,3,6,53,1,weisen,1,1,0.447,2,1
1,1,21,3,6,54,1,bereiten,1,1,0.463,2,1
1,1,21,3,6,55,2,Einst,1,1,0.662,1,1
1,1,21,3,6,56,1,Landrat,1,1,0.519,2,1
1,1,21,3,6,57,1,wechseln,1,1,0.438,2,1
1,1,21,3,6,58,1,Woche,1,1,0.463,2,1
1,1,21,3,6,59,4,Trlzbl,0,1,0.511,2,2
1,1,21,3,6,60,2,knusprig,1,1,0.494,1,1
1,1,21,3,6,61,3,necht,0,1,1.063,1,2
1,1,21,3,6,62,2,Almosen,1,1,0.638,1,1
1,1,21,3,6,63,3,Bagihrin,0,1,0.655,1,2
1,1,21,3,6,64,3,Kindin,0,1,0.646,1,2
1,1,21,3,6,65,3,hungihin,0,1,0.446,1,2
1,1,21,3,6,66,1,werfen,1,1,0.542,2,1
1,1,21,3,6,67,2,Knüppel,1,1,0.582,1,1
1,1,21,3,6,68,4,Ssgäke,0,1,0.479,2,2
1,1,21,3,6,69,2,Städter,1,1,0.815,1,1
1,1,21,3,6,70,1,dringend,1,1,0.599,2,1
1,1,21,3,6,71,1,Führung,1,1,0.51,2,1
1,1,21,3,6,72,4,Balhf,0,1,0.766,2,2
1,1,21,3,6,73,4,Alfön,0,1,0.559,2,2
1,1,21,3,6,74,4,Worpii,0,1,0.55,2,2
1,1,21,3,6,75,4,Danutt,0,1,0.558,2,2
1,1,21,3,6,76,4,Mipddn,0,1,0.479,2,2
1,1,21,3,6,77,2,Masseur,1,1,1.23,1,1
1,1,21,3,6,78,4,Vrnozpe,0,1,0.47,2,2
1,1,21,3,6,79,2,filtern,1,1,0.534,1,1
1,1,21,3,6,80,3,Tolofux,0,1,0.551,1,2
1,1,21,3,6,81,3,Fraihorr,0,1,0.55,1,2
1,1,21,3,6,82,1,gelungen,1,1,0.542,2,1
1,1,21,3,6,83,2,grenznah,1,1,0.814,1,1
1,1,21,3,6,84,1,Beginn,1,1,0.543,2,1
1,1,21,3,6,85,3,Heosorzt,0,1,0.702,1,2
1,1,21,3,6,86,2,Kampfjet,1,1,0.655,1,1
1,1,21,3,6,87,4,araige,0,1,0.567,2,2
1,1,21,3,6,88,3,Vurfill,1,0,0.462,1,2
1,1,21,3,6,89,2,Bettag,1,1,0.575,1,1
1,1,21,3,6,90,1,Anfrage,1,1,0.479,2,1
1,1,21,3,6,91,3,Vuttar,0,1,0.925,1,2
1,1,21,3,6,92,4,Hleroe,0,1,0.583,2,2
1,1,21,3,6,93,2,Quere,1,1,0.624,1,1
1,1,21,3,6,94,2,Piercing,1,1,0.535,1,1
1,1,21,3,6,95,2,queren,1,1,0.602,1,1
1,1,21,3,6,96,3,Aapharee,0,1,0.687,1,2
1,1,21,3,6,97,4,Guhtlr,0,1,0.542,2,2
1,1,21,3,6,98,1,Stimme,1,1,0.494,2,1
1,1,21,3,6,99,1,sperren,1,1,0.479,2,1
1,1,21,3,6,100,3,hitzeg,0,1,0.95,1,2
1,1,21,3,6,101,1,beweisen,1,1,0.535,2,1
1,1,21,3,6,102,2,Grotte,1,1,0.502,1,1
1,1,21,3,6,103,2,Übermaß,1,1,0.487,1,1
1,1,21,3,6,104,4,Muoste,0,1,0.591,2,2
1,1,21,3,7,5,4,Kevnei,0,1,0.486,2,2
1,1,21,3,7,6,3,Enstund,1,0,0.67,1,2
1,1,21,3,7,7,3,Kallor,0,1,1.463,1,2
1,1,21,3,7,8,1,Beruf,1,1,0.599,2,1
1,1,21,3,7,9,3,Iratak,0,1,0.751,1,2
1,1,21,3,7,10,3,Clawn,0,1,0.679,1,2
1,1,21,3,7,11,2,Zander,1,1,0.606,1,1
1,1,21,3,7,12,1,Archiv,1,1,0.559,2,1
1,1,21,3,7,13,2,Seehund,1,1,0.462,1,1
1,1,21,3,7,14,4,Koraoa,0,1,0.725,2,2
1,1,21,3,7,15,1,Investor,1,1,0.687,2,1
1,1,21,3,7,16,3,drabur,0,1,0.574,1,2
1,1,21,3,7,17,2,Cartoon,1,1,0.83,1,1
1,1,21,3,7,18,2,findig,1,1,1.591,1,1
1,1,21,3,7,19,3,Hokin,0,1,1.494,1,2
1,1,21,3,7,20,3,Biggur,0,1,0.678,1,2
1,1,21,3,7,21,2,Kittel,1,1,0.718,1,1
1,1,21,3,7,22,4,grnfeloh,0,1,0.518,2,2
1,1,21,3,7,23,1,tragen,1,1,0.687,2,1
1,1,21,3,7,24,2,Südost,1,1,0.558,1,1
1,1,21,3,7,25,4,Pafünh,0,1,0.559,2,2
1,1,21,3,7,26,4,Ööirui,0,1,0.454,2,2
1,1,21,3,7,27,3,blatin,0,1,0.982,1,2
1,1,21,3,7,28,4,Mornun,0,1,1.078,2,2
1,1,21,3,7,29,1,Meister,1,1,0.51,2,1
1,1,21,3,7,30,3,flett,0,1,0.646,1,2
1,1,21,3,7,31,4,Tbetrti,0,1,0.479,2,2
1,1,21,3,7,32,4,eelarh,0,1,0.446,2,2
1,1,21,3,7,33,4,Brtli,0,1,0.454,2,2
1,1,21,3,7,34,3,Traumph,0,1,0.663,1,2
1,1,21,3,7,35,1,prägen,1,1,0.567,2,1
1,1,21,3,7,36,4,vrgeuge,0,1,0.446,2,2
1,1,21,3,7,37,2,gewitzt,1,1,1.078,1,1
1,1,21,3,7,38,3,Robbu,0,1,0.502,1,2
1,1,21,3,7,39,2,Zölibat,1,1,0.798,1,1
1,1,21,3,7,40,4,Demoa,0,1,0.615,2,2
1,1,21,3,7,41,3,Stribo,0,1,0.51,1,2
1,1,21,3,7,42,2,Gesunde,1,1,0.486,1,1
1,1,21,3,7,43,1,sofort,1,1,0.567,2,1
1,1,21,3,7,44,1,Kunde,1,1,0.51,2,1
1,1,21,3,7,45,4,gelnze,0,1,0.791,2,2
1,1,21,3,7,46,2,Husten,1,1,0.59,1,1
1,1,21,3,7,47,4,Cuiptoh,0,1,0.471,2,2
1,1,21,3,7,48,3,Patir,0,1,0.767,1,2
1,1,21,3,7,49,3,Grunate,0,1,0.926,1,2
1,1,21,3,7,50,2,Geflecht,1,1,0.645,1,1
1,1,21,3,7,51,1,verkauft,1,1,0.614,2,1
1,1,21,3,7,52,1,Kampf,1,1,0.447,2,1
1,1,21,3,7,53,4,Wouare,0,1,0.527,2,2
1,1,21,3,7,54,1,sicher,1,1,0.566,2,1
1,1,21,3,7,55,3,Pilest,0,1,0.726,1,2
1,1,21,3,7,56,4,Behsog,0,1,0.583,2,2
1,1,21,3,7,57,4,Wunolgk,0,1,0.631,2,2
1,1,21,3,7,58,3,Prebind,0,1,0.598,1,2
1,1,21,3,7,59,4,sasae,0,1,0.518,2,2
1,1,21,3,7,60,1,jüdisch,1,1,0.55,2,1
1,1,21,3,7,61,2,Aufgang,1,1,0.47,1,1
1,1,21,3,7,62,3,Toktak,0,1,0.646,1,2
1,1,21,3,7,63,3,Thaku,0,1,0.734,1,2
1,1,21,3,7,64,4,paaou,0,1,0.462,2,2
1,1,21,3,7,65,1,wohnen,1,1,0.526,2,1
1,1,21,3,7,66,2,Gräuel,1,1,0.711,1,1
1,1,21,3,7,67,3,gelietun,0,1,0.974,1,2
1,1,21,3,7,68,3,Schlouar,0,1,0.622,1,2
1,1,21,3,7,69,4,Besdt,0,1,0.526,2,2
1,1,21,3,7,70,2,Husar,1,1,0.902,1,1
1,1,21,3,7,71,1,einigen,1,1,0.599,2,1
1,1,21,3,7,72,1,Reform,1,1,0.567,2,1
1,1,21,3,7,73,1,Mittwoch,1,1,0.47,2,1
1,1,21,3,7,74,1,Winter,1,1,0.454,2,1
1,1,21,3,7,75,1,Ordnung,1,1,0.446,2,1
1,1,21,3,7,76,2,lasch,1,1,0.703,1,1
1,1,21,3,7,77,3,Notirzt,0,1,0.782,1,2
1,1,21,3,7,78,1,Roman,1,1,0.495,2,1
1,1,21,3,7,79,2,Omega,1,1,0.622,1,1
1,1,21,3,7,80,2,Irrweg,1,1,0.734,1,1
1,1,21,3,7,81,2,Bandname,1,1,0.471,1,1
1,1,21,3,7,82,4,Grrfl,0,1,0.534,2,2
1,1,21,3,7,83,1,Presse,1,1,0.503,2,1
1,1,21,3,7,84,1,Protest,1,1,0.551,2,1
1,1,21,3,7,85,2,Prälat,0,0,0.759,1,1
1,1,21,3,7,86,4,Dnskrn,0,1,0.511,2,2
1,1,21,3,7,87,2,Dorfkern,1,1,0.686,1,1
1,1,21,3,7,88,2,Sühne,1,1,0.47,1,1
1,1,21,3,7,89,3,Narwagir,0,1,0.695,1,2
1,1,21,3,7,90,2,kegeln,1,1,0.503,1,1
1,1,21,3,7,91,2,Plage,1,1,0.493,1,1
1,1,21,3,7,92,2,Pfusch,1,1,0.84,1,1
1,1,21,3,7,93,4,Iagiür,0,1,0.542,2,2
1,1,21,3,7,94,3,stioen,0,1,0.703,1,2
1,1,21,3,7,95,4,Aohou,0,1,0.479,2,2
1,1,21,3,7,96,2,Bürge,1,1,0.566,1,1
1,1,21,3,7,97,1,ruhig,1,1,0.647,2,1
1,1,21,3,7,98,1,stoppen,1,1,0.485,2,1
1,1,21,3,7,99,1,Talent,1,1,0.567,2,1
1,1,21,3,7,100,3,doppoln,0,1,0.934,1,2
1,1,21,3,7,101,4,Gmlur,0,1,0.446,2,2
1,1,21,3,7,102,4,gaital,0,1,0.646,2,2
1,1,21,3,7,103,3,sadonn,0,1,0.535,1,2
1,1,21,3,7,104,1,Motor,1,1,0.519,2,1
1,1,21,3,8,5,3,Museak,0,1,0.543,1,2
1,1,21,3,8,6,4,faneiig,0,1,0.518,2,2
1,1,21,3,8,7,4,paoide,0,1,0.493,2,2
1,1,21,3,8,8,3,Stipal,0,1,0.687,1,2
1,1,21,3,8,9,4,Srhgeu,0,1,0.439,2,2
1,1,21,3,8,10,2,Satzball,1,1,0.767,1,1
1,1,21,3,8,11,1,Begriff,1,1,0.607,2,1
1,1,21,3,8,12,3,enbelagt,0,1,0.573,1,2
1,1,21,3,8,13,1,kaufen,1,1,0.502,2,1
1,1,21,3,8,14,1,zwölf,1,1,0.495,2,1
1,1,21,3,8,15,4,Aaupuoe,0,1,0.462,2,2
1,1,21,3,8,16,3,Ounstond,0,1,0.518,1,2
1,1,21,3,8,17,1,berufen,1,1,0.479,2,1
1,1,21,3,8,18,1,Besitzer,1,1,0.407,2,1
1,1,21,3,8,19,2,tüfteln,1,1,0.743,1,1
1,1,21,3,8,20,1,bisschen,1,1,0.678,2,1
1,1,21,3,8,21,2,Rokoko,1,1,0.807,1,1
1,1,21,3,8,22,2,Kadaver,1,1,0.814,1,1
1,1,21,3,8,23,1,Variante,1,1,0.494,2,1
1,1,21,3,8,24,1,Auftrag,1,1,0.431,2,1
1,1,21,3,8,25,2,Clinch,0,0,0.759,1,1
1,1,21,3,8,26,2,gekürt,1,1,0.806,1,1
1,1,21,3,8,27,2,Squash,1,1,0.655,1,1
1,1,21,3,8,28,3,klingond,0,1,0.63,1,2
1,1,21,3,8,29,3,Kerzfalm,0,1,1.039,1,2
1,1,21,3,8,30,1,jeweilig,1,1,0.623,2,1
1,1,21,3,8,31,3,olburn,0,1,0.503,1,2
1,1,21,3,8,32,2,Fehde,1,1,0.983,1,1
1,1,21,3,8,33,4,uobmdet,0,1,0.551,2,2
1,1,21,3,8,34,1,ständig,1,1,0.494,2,1
1,1,21,3,8,35,3,ublosen,0,1,0.638,1,2
1,1,21,3,8,36,4,Gpelba,0,1,0.542,2,2
1,1,21,3,8,37,2,spuken,1,1,0.534,1,1
1,1,21,3,8,38,3,Worzal,0,1,0.502,1,2
1,1,21,3,8,39,4,Neznerr,0,1,0.511,2,2
1,1,21,3,8,40,3,Gosello,0,1,0.622,1,2
1,1,21,3,8,41,3,Sagun,0,1,0.751,1,2
1,1,21,3,8,42,2,Gehöft,1,1,1.302,1,1
1,1,21,3,8,43,3,kouman,0,1,0.583,1,2
1,1,21,3,8,44,2,flitzen,1,1,0.566,1,1
1,1,21,3,8,45,2,Fühler,1,1,0.535,1,1
1,1,21,3,8,46,2,Erdteil,1,1,0.526,1,1
1,1,21,3,8,47,2,Konsole,1,1,0.575,1,1
1,1,21,3,8,48,1,Norden,1,1,0.447,2,1
1,1,21,3,8,49,2,höllisch,1,1,0.575,1,1
1,1,21,3,8,50,3,Pirlo,0,1,0.71,1,2
1,1,21,3,8,51,1,Aktion,1,1,0.503,2,1
1,1,21,3,8,52,1,erwähnen,1,1,0.479,2,1
1,1,21,3,8,53,4,Boräiii,0,1,0.855,2,2
1,1,21,3,8,54,3,dorwuil,0,1,0.623,1,2
1,1,21,3,8,55,3,Matteg,0,1,0.592,1,2
1,1,21,3,8,56,3,Wultraum,0,1,0.718,1,2
1,1,21,3,8,57,1,ausgehen,1,1,0.742,2,1
1,1,21,3,8,58,1,extrem,1,1,0.471,2,1
1,1,21,3,8,59,4,keccho,0,1,0.542,2,2
1,1,21,3,8,60,4,Grnowd,0,1,0.479,2,2
1,1,21,3,8,61,4,Sursl,0,1,0.63,2,2
1,1,21,3,8,62,4,Donsod,0,1,0.543,2,2
1,1,21,3,8,63,1,Leistung,1,1,0.527,2,1
1,1,21,3,8,64,2,Karre,1,1,0.671,1,1
1,1,21,3,8,65,4,rfalao,0,1,0.485,2,2
1,1,21,3,8,66,1,pflegen,1,1,0.606,2,1
1,1,21,3,8,67,4,prmgüa,0,1,0.438,2,2
1,1,21,3,8,68,2,Konserve,1,1,0.583,1,1
1,1,21,3,8,69,3,drangond,0,1,0.638,1,2
1,1,21,3,8,70,1,Bedarf,1,1,0.518,2,1
1,1,21,3,8,71,4,Leerme,0,1,0.527,2,2
1,1,21,3,8,72,4,tymrti,0,1,0.471,2,2
1,1,21,3,8,73,3,hanturm,0,1,0.494,1,2
1,1,21,3,8,74,4,neaioa,0,1,0.63,2,2
1,1,21,3,8,75,3,schunun,0,1,0.607,1,2
1,1,21,3,8,76,3,suchtin,0,1,0.702,1,2
1,1,21,3,8,77,2,Hörgerät,1,1,0.607,1,1
1,1,21,3,8,78,2,Heiland,1,1,0.711,1,1
1,1,21,3,8,79,1,Auflage,1,1,0.535,2,1
1,1,21,3,8,80,3,selbern,0,1,1.767,1,2
1,1,21,3,8,81,4,Fbugezd,0,1,0.519,2,2
1,1,21,3,8,82,4,Pztraat,0,1,0.447,2,2
1,1,21,3,8,83,3,touschun,0,1,0.741,1,2
1,1,21,3,8,84,2,gespickt,1,1,0.631,1,1
1,1,21,3,8,85,1,bezahlen,1,1,0.438,2,1
1,1,21,3,8,86,1,Version,1,1,0.534,2,1
1,1,21,3,8,87,4,Rokemas,0,1,1.503,2,2
1,1,21,3,8,88,4,eeraite,0,1,0.511,2,2
1,1,21,3,8,89,2,rossen,1,1,0.519,1,1
1,1,21,3,8,90,1,werben,1,1,0.519,2,1
1,1,21,3,8,91,3,reizvull,1,0,0.676,1,2
1,1,21,3,8,92,1,Kunst,1,1,0.661,2,1
1,1,21,3,8,93,4,Küiphd,0,1,0.534,2,2
1,1,21,3,8,94,3,Aaßara,0,1,0.566,1,2
1,1,21,3,8,95,1,Aspekt,1,1,0.598,2,1
1,1,21,3,8,96,2,Kaugummi,1,1,0.598,1,1
1,1,21,3,8,97,4,Eesllmae,0,1,0.575,2,2
1,1,21,3,8,98,4,Khsreeil,0,1,0.743,2,2
1,1,21,3,8,99,2,Soldatin,1,1,0.559,1,1
1,1,21,3,8,100,2,Baugrube,1,1,0.567,1,1
1,1,21,3,8,101,3,Lektir,0,1,0.686,1,2
1,1,21,3,8,102,4,Dulpn,0,1,0.622,2,2
1,1,21,3,8,103,2,Känguru,1,1,0.822,1,1
1,1,21,3,8,104,1,Quelle,1,1,0.503,2,1
1,1,21,4,1,5,1,fliegen,1,1,0.502,2,1
1,1,21,4,1,6,3,stolpirn,0,1,0.511,1,2
1,1,21,4,1,7,3,Seovinir,0,1,0.431,1,2
1,1,21,4,1,8,1,Klasse,1,1,0.43,2,1
1,1,21,4,1,9,4,Geoltt,0,1,0.47,2,2
1,1,21,4,1,10,2,Tiefbau,1,1,0.518,1,1
1,1,21,4,1,11,3,siitdim,0,1,0.462,1,2
1,1,21,4,1,12,2,Texaner,1,1,0.478,1,1
1,1,21,4,1,13,2,zündeln,1,1,0.526,1,1
1,1,21,4,1,14,3,Streftot,0,1,0.486,1,2
1,1,21,4,1,15,3,Merkgrof,0,1,0.678,1,2
1,1,21,4,1,16,1,kümmern,1,1,0.446,2,1
1,1,21,4,1,17,2,Fachwerk,1,1,0.494,1,1
1,1,21,4,1,18,3,Klappu,0,1,0.55,1,2
1,1,21,4,1,19,4,fägähuf,1,0,0.477,2,2
1,1,21,4,1,20,4,Rehnuä,0,1,0.494,2,2
1,1,21,4,1,21,2,Backofen,1,1,0.638,1,1
1,1,21,4,1,22,3,Krietir,0,1,0.526,1,2
1,1,21,4,1,23,3,gifisst,0,1,0.574,1,2
1,1,21,4,1,24,4,Güonhfn,0,1,0.47,2,2
1,1,21,4,1,25,4,Lrctps,0,1,0.423,2,2
1,1,21,4,1,26,2,kodieren,1,1,0.758,1,1
1,1,21,4,1,27,2,Latino,1,1,0.758,1,1
1,1,21,4,1,28,3,golehrt,0,1,0.622,1,2
1,1,21,4,1,29,1,zulassen,1,1,0.485,2,1
1,1,21,4,1,30,1,springen,1,1,0.487,2,1
1,1,21,4,1,31,3,Opocho,0,1,0.494,1,2
1,1,21,4,1,32,2,vorhin,1,1,0.518,1,1
1,1,21,4,1,33,2,Attest,1,1,0.414,1,1
1,1,21,4,1,34,4,Aeoirn,0,1,0.439,2,2
1,1,21,4,1,35,3,Sidstedt,0,1,0.574,1,2
1,1,21,4,1,36,2,gebraten,1,1,0.486,1,1
1,1,21,4,1,37,1,brechen,1,1,0.671,2,1
1,1,21,4,1,38,2,Biogas,1,1,0.59,1,1
1,1,21,4,1,39,2,Pastorin,1,1,0.734,1,1
1,1,21,4,1,40,3,Jemend,0,1,0.719,1,2
1,1,21,4,1,41,1,erleiden,1,1,0.55,2,1
1,1,21,4,1,42,3,Ombaunta,0,1,0.511,1,2
1,1,21,4,1,43,2,Lehrzeit,1,1,0.502,1,1
1,1,21,4,1,44,1,Besucher,1,1,0.878,2,1
1,1,21,4,1,45,4,Femio,0,1,0.51,2,2
1,1,21,4,1,46,1,zufolge,1,1,0.454,2,1
1,1,21,4,1,47,4,Ureef,0,1,0.446,2,2
1,1,21,4,1,48,1,Papst,1,1,0.478,2,1
1,1,21,4,1,49,1,Akademie,1,1,0.535,2,1
1,1,21,4,1,50,1,Januar,1,1,0.454,2,1
1,1,21,4,1,51,3,Raleqiie,0,1,0.503,1,2
1,1,21,4,1,52,2,gekrönt,1,1,0.55,1,1
1,1,21,4,1,53,4,Rerhtnu,0,1,0.502,2,2
1,1,21,4,1,54,3,Eonogung,0,1,0.478,1,2
1,1,21,4,1,55,3,schuttan,0,1,0.565,1,2
1,1,21,4,1,56,1,mehrfach,1,1,0.525,2,1
1,1,21,4,1,57,4,gentek,0,1,0.479,2,2
1,1,21,4,1,58,1,türkisch,1,1,0.509,2,1
1,1,21,4,1,59,2,Trapp,1,1,0.702,1,1
1,1,21,4,1,60,4,kekhan,0,1,0.502,2,2
1,1,21,4,1,61,1,Prinzip,1,1,0.517,2,1
1,1,21,4,1,62,1,bekennen,1,1,0.582,2,1
1,1,21,4,1,63,1,Kontakt,1,1,0.502,2,1
1,1,21,4,1,64,4,Krrncr,0,1,0.494,2,2
1,1,21,4,1,65,3,geniugt,0,1,0.661,1,2
1,1,21,4,1,66,3,Mundort,0,1,1.206,1,2
1,1,21,4,1,67,2,Klöppel,1,1,0.743,1,1
1,1,21,4,1,68,4,Bupauhe,0,1,0.478,2,2
1,1,21,4,1,69,1,Alltag,1,1,0.487,2,1
1,1,21,4,1,70,4,Irloineg,0,1,0.423,2,2
1,1,21,4,1,71,3,Morga,0,1,0.527,1,2
1,1,21,4,1,72,2,Losung,0,0,0.566,1,1
1,1,21,4,1,73,3,Gihelz,0,1,0.551,1,2
1,1,21,4,1,74,3,Irntu,0,1,0.574,1,2
1,1,21,4,1,75,4,Pemivgr,0,1,0.495,2,2
1,1,21,4,1,76,2,Tatwaffe,1,1,0.542,1,1
1,1,21,4,1,77,4,Biisea,0,1,0.438,2,2
1,1,21,4,1,78,1,wobei,1,1,0.566,2,1
1,1,21,4,1,79,3,Tacka,0,1,0.461,1,2
1,1,21,4,1,80,4,wiuhzlab,0,1,0.43,2,2
1,1,21,4,1,81,2,hellblau,1,1,0.55,1,1
1,1,21,4,1,82,2,Wehrmann,1,1,0.534,1,1
1,1,21,4,1,83,2,Dampfer,1,1,0.501,1,1
1,1,21,4,1,84,4,Maoihg,0,1,0.455,2,2
1,1,21,4,1,85,2,Chili,0,0,0.422,1,1
1,1,21,4,1,86,4,hbelrflt,0,1,0.454,2,2
1,1,21,4,1,87,1,Kraft,1,1,0.47,2,1
1,1,21,4,1,88,4,Kiskree,0,1,0.605,2,2
1,1,21,4,1,89,4,Eurlaar,0,1,0.639,2,2
1,1,21,4,1,90,3,Tinnol,0,1,0.558,1,2
1,1,21,4,1,91,1,bisherig,1,1,0.517,2,1
1,1,21,4,1,92,4,Tubipire,0,1,0.486,2,2
1,1,21,4,1,93,1,offenbar,1,1,0.494,2,1
1,1,21,4,1,94,2,Botanik,1,1,0.558,1,1
1,1,21,4,1,95,1,Museum,1,1,0.519,2,1
1,1,21,4,1,96,2,Dekor,1,1,0.557,1,1
1,1,21,4,1,97,1,Risiko,1,1,0.454,2,1
1,1,21,4,1,98,4,hkrlm,0,1,0.446,2,2
1,1,21,4,1,99,4,rauneiu,0,1,0.486,2,2
1,1,21,4,1,100,4,Faloree,0,1,0.51,2,2
1,1,21,4,1,101,2,Sturmböe,1,1,0.574,1,1
1,1,21,4,1,102,3,varnihm,0,1,0.438,1,2
1,1,21,4,1,103,3,Ordbobin,0,1,0.399,1,2
1,1,21,4,1,104,1,trinken,1,1,0.47,2,1
1,1,21,4,2,5,3,Tuschlir,0,1,0.526,1,2
1,1,21,4,2,6,4,Sawhoen,0,1,0.55,2,2
1,1,21,4,2,7,3,Iduat,0,1,0.718,1,2
1,1,21,4,2,8,4,Zofussg,0,1,0.494,2,2
1,1,21,4,2,9,2,Tilde,0,0,2.007,1,1
1,1,21,4,2,10,4,Aetsee,0,1,0.559,2,2
1,1,21,4,2,11,4,Merfn,0,1,0.503,2,2
1,1,21,4,2,12,3,Ontorort,0,1,0.55,1,2
1,1,21,4,2,13,3,Attantat,0,1,0.783,1,2
1,1,21,4,2,14,1,Armee,1,1,0.543,2,1
1,1,21,4,2,15,3,Borgung,1,0,1.047,1,2
1,1,21,4,2,16,1,erkennen,1,1,0.894,2,1
1,1,21,4,2,17,2,Vorschub,1,1,0.599,1,1
1,1,21,4,2,18,4,Punnieeh,0,1,0.551,2,2
1,1,21,4,2,19,3,Kithalik,0,1,0.487,1,2
1,1,21,4,2,20,2,ablagern,1,1,0.59,1,1
1,1,21,4,2,21,1,still,1,1,0.543,2,1
1,1,21,4,2,22,1,anbieten,1,1,0.455,2,1
1,1,21,4,2,23,4,bekse,0,1,0.597,2,2
1,1,21,4,2,24,2,solar,1,1,0.645,1,1
1,1,21,4,2,25,2,Hören,1,1,0.479,1,1
1,1,21,4,2,26,1,jeweils,1,1,0.462,2,1
1,1,21,4,2,27,1,Party,1,1,0.415,2,1
1,1,21,4,2,28,4,zanmk,0,1,0.503,2,2
1,1,21,4,2,29,1,ansehen,1,1,0.479,2,1
1,1,21,4,2,30,2,Abhang,1,1,0.462,1,1
1,1,21,4,2,31,1,Natur,1,1,0.43,2,1
1,1,21,4,2,32,2,Kurgast,1,1,0.646,1,1
1,1,21,4,2,33,3,Wuuße,0,1,0.486,1,2
1,1,21,4,2,34,2,Anorak,1,1,0.67,1,1
1,1,21,4,2,35,3,tichtug,0,1,0.67,1,2
1,1,21,4,2,36,1,Flugzeug,1,1,0.447,2,1
1,1,21,4,2,37,2,Baukunst,1,1,0.671,1,1
1,1,21,4,2,38,1,Kirche,1,1,0.518,2,1
1,1,21,4,2,39,2,Lette,0,0,0.758,1,1
1,1,21,4,2,40,1,Brand,1,1,0.47,2,1
1,1,21,4,2,41,2,Ultra,1,1,0.654,1,1
1,1,21,4,2,42,4,Tiplpln,0,1,0.679,2,2
1,1,21,4,2,43,3,Knappo,0,1,0.638,1,2
1,1,21,4,2,44,2,Libelle,1,1,0.55,1,1
1,1,21,4,2,45,3,Elprees,0,1,0.559,1,2
1,1,21,4,2,46,4,Fcfpe,0,1,0.422,2,2
1,1,21,4,2,47,4,auwlau,0,1,0.414,2,2
1,1,21,4,2,48,4,bprsane,0,1,0.495,2,2
1,1,21,4,2,49,1,suchen,1,1,0.502,2,1
1,1,21,4,2,50,1,kürzlich,1,1,0.566,2,1
1,1,21,4,2,51,3,Silbu,0,1,0.518,1,2
1,1,21,4,2,52,1,Sammlung,1,1,0.487,2,1
1,1,21,4,2,53,2,versäumt,1,1,0.558,1,1
1,1,21,4,2,54,2,Kätzchen,1,1,0.494,1,1
1,1,21,4,2,55,2,Bahndamm,0,0,0.478,1,1
1,1,21,4,2,56,1,Dienstag,1,1,0.702,2,1
1,1,21,4,2,57,3,juboln,0,1,0.535,1,2
1,1,21,4,2,58,3,Bottlir,0,1,0.51,1,2
1,1,21,4,2,59,4,Dtibs,0,1,0.471,2,2
1,1,21,4,2,60,3,schlocht,0,1,0.606,1,2
1,1,21,4,2,61,2,optional,1,1,0.59,1,1
1,1,21,4,2,62,2,Fixpunkt,1,1,0.653,1,1
1,1,21,4,2,63,4,Krnmag,0,1,0.519,2,2
1,1,21,4,2,64,2,Billett,0,0,0.647,1,1
1,1,21,4,2,65,3,frestog,0,1,0.494,1,2
1,1,21,4,2,66,1,Tourist,1,1,0.509,2,1
1,1,21,4,2,67,1,Umstand,1,1,0.646,2,1
1,1,21,4,2,68,1,Infobox,1,1,0.574,2,1
1,1,21,4,2,69,4,betäsc,0,1,0.502,2,2
1,1,21,4,2,70,1,Argument,1,1,0.477,2,1
1,1,21,4,2,71,4,Lecfiyod,0,1,0.59,2,2
1,1,21,4,2,72,3,Synurgua,0,1,0.51,1,2
1,1,21,4,2,73,2,zulasten,1,1,0.486,1,1
1,1,21,4,2,74,4,Brpoban,0,1,0.51,2,2
1,1,21,4,2,75,3,Faldhirr,0,1,1.006,1,2
1,1,21,4,2,76,4,uetdh,0,1,0.598,2,2
1,1,21,4,2,77,4,kaüemes,0,1,0.566,2,2
1,1,21,4,2,78,1,Auftritt,1,1,0.534,2,1
1,1,21,4,2,79,3,Flyar,0,1,0.606,1,2
1,1,21,4,2,80,4,roßrba,0,1,0.447,2,2
1,1,21,4,2,81,1,Neubau,1,1,0.51,2,1
1,1,21,4,2,82,2,Dozentin,1,1,0.574,1,1
1,1,21,4,2,83,2,Möhre,1,1,0.463,1,1
1,1,21,4,2,84,1,Messe,1,1,0.487,2,1
1,1,21,4,2,85,1,russisch,1,1,0.534,2,1
1,1,21,4,2,86,4,Toaäpm,0,1,0.494,2,2
1,1,21,4,2,87,1,wachsen,1,1,0.511,2,1
1,1,21,4,2,88,4,auukbe,0,1,0.582,2,2
1,1,21,4,2,89,2,monoton,1,1,0.702,1,1
1,1,21,4,2,90,3,obhongig,0,1,0.614,1,2
1,1,21,4,2,91,2,durstig,1,1,0.577,1,1
1,1,21,4,2,92,1,fürchten,1,1,0.51,2,1
1,1,21,4,2,93,4,Mosbtiet,0,1,0.559,2,2
1,1,21,4,2,94,3,Aigintum,0,1,0.606,1,2
1,1,21,4,2,95,3,draamol,0,1,0.494,1,2
1,1,21,4,2,96,3,Wruck,0,1,0.438,1,2
1,1,21,4,2,97,2,Schippe,1,1,0.542,1,1
1,1,21,4,2,98,4,Gegtere,0,1,0.559,2,2
1,1,21,4,2,99,4,Aedoefg,0,1,0.742,2,2
1,1,21,4,2,100,4,Zibitu,0,1,0.566,2,2
1,1,21,4,2,101,3,Pruspukt,0,1,0.807,1,2
1,1,21,4,2,102,3,stirr,0,1,1.166,1,2
1,1,21,4,2,103,3,bingin,0,1,0.607,1,2
1,1,21,4,2,104,2,umbaut,1,1,0.567,1,1
1,1,21,4,3,5,1,ähnlich,1,1,0.471,2,1
1,1,21,4,3,6,4,Hansrün,0,1,0.798,2,2
1,1,21,4,3,7,2,abwinken,1,1,0.575,1,1
1,1,21,4,3,8,2,Irrsinn,1,1,0.486,1,1
1,1,21,4,3,9,3,trast,0,1,0.655,1,2
1,1,21,4,3,10,4,Wrlhic,0,1,0.463,2,2
1,1,21,4,3,11,1,gelegen,1,1,0.582,2,1
1,1,21,4,3,12,3,Thrun,0,1,0.439,1,2
1,1,21,4,3,13,4,Narrasl,0,1,0.511,2,2
1,1,21,4,3,14,1,Signal,1,1,0.478,2,1
1,1,21,4,3,15,2,bemannt,1,1,0.734,1,1
1,1,21,4,3,16,1,Angst,1,1,0.462,2,1
1,1,21,4,3,17,1,starten,1,1,0.493,2,1
1,1,21,4,3,18,2,bersten,1,1,0.446,1,1
1,1,21,4,3,19,2,Großrat,1,1,0.551,1,1
1,1,21,4,3,20,2,Wärter,1,1,0.478,1,1
1,1,21,4,3,21,4,Hlrle,0,1,0.511,2,2
1,1,21,4,3,22,4,eemur,0,1,0.463,2,2
1,1,21,4,3,23,1,Ihnen,1,1,0.527,2,1
1,1,21,4,3,24,4,Köasi,0,1,0.502,2,2
1,1,21,4,3,25,4,Saslku,0,1,0.671,2,2
1,1,21,4,3,26,1,Regel,1,1,0.478,2,1
1,1,21,4,3,27,2,Jüdin,1,1,0.495,1,1
1,1,21,4,3,28,1,absolut,1,1,0.495,2,1
1,1,21,4,3,29,4,Sneer,0,1,0.655,2,2
1,1,21,4,3,30,4,bznsfia,0,1,0.494,2,2
1,1,21,4,3,31,2,abringen,1,1,0.735,1,1
1,1,21,4,3,32,3,Schwonz,0,1,0.502,1,2
1,1,21,4,3,33,3,Onstinz,0,1,0.606,1,2
1,1,21,4,3,34,3,ompfen,0,1,0.486,1,2
1,1,21,4,3,35,2,Amtmann,1,1,0.79,1,1
1,1,21,4,3,36,3,Trunsat,0,1,0.566,1,2
1,1,21,4,3,37,2,Welpe,1,1,0.55,1,1
1,1,21,4,3,38,3,Sindi,0,1,0.558,1,2
1,1,21,4,3,39,3,Iltesto,0,1,0.83,1,2
1,1,21,4,3,40,1,scheiden,1,1,0.575,2,1
1,1,21,4,3,41,4,Mrhnerp,0,1,0.479,2,2
1,1,21,4,3,42,2,basta,1,1,0.863,1,1
1,1,21,4,3,43,3,Zuntrulo,0,1,0.478,1,2
1,1,21,4,3,44,1,Kommune,1,1,0.551,2,1
1,1,21,4,3,45,1,Trend,0,0,0.494,2,1
1,1,21,4,3,46,4,Bktnire,0,1,0.494,2,2
1,1,21,4,3,47,2,Burghof,1,1,0.575,1,1
1,1,21,4,3,48,2,Seehöhe,1,1,0.447,1,1
1,1,21,4,3,49,4,Gaoshr,0,1,0.51,2,2
1,1,21,4,3,50,3,Moletir,1,0,0.518,1,2
1,1,21,4,3,51,3,Steck,0,1,1.887,1,2
1,1,21,4,3,52,2,heiser,1,1,0.598,1,1
1,1,21,4,3,53,3,woshilb,0,1,0.79,1,2
1,1,21,4,3,54,2,Whiskey,1,1,0.63,1,1
1,1,21,4,3,55,2,polar,1,1,0.582,1,1
1,1,21,4,3,56,1,danach,1,1,0.534,2,1
1,1,21,4,3,57,1,Kenntnis,1,1,0.535,2,1
1,1,21,4,3,58,3,oborlagt,0,1,0.606,1,2
1,1,21,4,3,59,4,Tlderer,0,1,0.622,2,2
1,1,21,4,3,60,1,geeignet,1,1,0.511,2,1
1,1,21,4,3,61,1,feiern,1,1,0.614,2,1
1,1,21,4,3,62,1,kräftig,1,1,0.455,2,1
1,1,21,4,3,63,4,Sibdf,0,1,0.494,2,2
1,1,21,4,3,64,3,kachon,0,1,0.79,1,2
1,1,21,4,3,65,1,Zuhörer,1,1,1.782,2,1
1,1,21,4,3,66,3,nanmihr,0,1,0.52,1,2
1,1,21,4,3,67,4,Tuhuu,0,1,0.535,2,2
1,1,21,4,3,68,4,Fustätg,0,1,0.839,2,2
1,1,21,4,3,69,4,Kezeie,0,1,0.518,2,2
1,1,21,4,3,70,2,rabiat,1,1,0.589,1,1
1,1,21,4,3,71,2,Gruft,1,1,0.743,1,1
1,1,21,4,3,72,2,adeln,1,1,0.702,1,1
