id,feedback,trial_condition,block,trial,correct_resp,resp,correct,rt
NA,Trial,Friday 15th of May 2015 02:35:07 PM txt,1,1,right,left,0,-6.49
NA,Trial,Friday 15th of May 2015 02:35:07 PM txt,1,2,right,right,1,8.578
NA,Trial,Friday 15th of May 2015 02:35:07 PM txt,1,3,right,right,1,5.007
NA,Trial,Friday 15th of May 2015 02:35:07 PM txt,1,4,left,left,1,2.343
NA,Trial,Friday 15th of May 2015 02:35:07 PM txt,1,5,left,right,0,-2.047
NA,Trial,Friday 15th of May 2015 02:35:07 PM txt,1,6,right,left,0,-4.363
NA,Trial,Friday 15th of May 2015 02:35:07 PM txt,1,7,right,right,1,8.915
NA,Trial,Friday 15th of May 2015 02:35:07 PM txt,1,8,right,right,1,5.526
NA,Trial,Friday 15th of May 2015 02:35:07 PM txt,1,9,left,left,1,2.575
NA,Trial,Friday 15th of May 2015 02:35:07 PM txt,1,10,right,right,1,1.75
NA,Trial,Friday 15th of May 2015 02:35:07 PM txt,1,11,left,left,1,4.294
NA,Trial,Friday 15th of May 2015 02:35:07 PM txt,1,12,right,right,1,3.215
NA,Trial,Friday 15th of May 2015 02:35:07 PM txt,1,13,right,right,1,2.143
NA,Trial,Friday 15th of May 2015 02:35:07 PM txt,1,14,left,left,1,1.311
NA,Trial,Friday 15th of May 2015 02:35:07 PM txt,1,15,right,left,0,-3.287
NA,Trial,Friday 15th of May 2015 02:35:07 PM txt,1,16,right,right,1,3.731
NA,Trial,Friday 15th of May 2015 02:35:07 PM txt,1,17,right,right,1,5.718
NA,Trial,Friday 15th of May 2015 02:35:07 PM txt,1,18,left,right,0,-3.238
NA,Trial,Friday 15th of May 2015 02:35:07 PM txt,1,19,left,left,1,1.907
NA,Trial,Friday 15th of May 2015 02:35:07 PM txt,1,20,left,left,1,3.759
NA,Trial,Friday 15th of May 2015 02:35:07 PM txt,1,21,left,left,1,1.951
NA,Trial,Friday 15th of May 2015 02:35:07 PM txt,1,22,left,left,1,2.695
NA,Trial,Friday 15th of May 2015 02:35:07 PM txt,1,23,right,right,1,3.919
NA,Trial,Friday 15th of May 2015 02:35:07 PM txt,1,24,left,left,1,2.07
NA,Trial,Friday 15th of May 2015 02:35:07 PM txt,1,25,right,right,1,1.79
NA,Trial,Friday 15th of May 2015 02:35:07 PM txt,1,26,right,left,0,-1.767
NA,Trial,Friday 15th of May 2015 02:35:07 PM txt,1,27,left,right,0,-2.923
NA,Trial,Friday 15th of May 2015 02:35:07 PM txt,1,28,left,left,1,7.027
NA,Trial,Friday 15th of May 2015 02:35:07 PM txt,1,29,left,left,1,4.928
NA,Trial,Friday 15th of May 2015 02:35:07 PM txt,1,30,left,left,1,4.12
NA,Trial,Friday 15th of May 2015 02:35:07 PM txt,1,31,left,left,1,4.991
NA,Trial,Friday 15th of May 2015 02:35:07 PM txt,1,32,right,left,0,-1.67
NA,Trial,Friday 15th of May 2015 02:35:07 PM txt,1,33,left,left,1,2.843
NA,Trial,Friday 15th of May 2015 02:35:07 PM txt,1,34,left,left,1,4.263
NA,Trial,Friday 15th of May 2015 02:35:07 PM txt,1,35,right,right,1,1.734
NA,Trial,Friday 15th of May 2015 02:35:07 PM txt,1,36,left,left,1,2.174
NA,Trial,Friday 15th of May 2015 02:35:07 PM txt,1,37,right,right,1,3.286
NA,Trial,Friday 15th of May 2015 02:35:07 PM txt,1,38,right,left,0,-2.471
NA,Trial,Friday 15th of May 2015 02:35:07 PM txt,1,39,right,right,1,2.163
NA,Trial,Friday 15th of May 2015 02:35:07 PM txt,1,40,left,right,0,-4.047
NA,Trial,Friday 15th of May 2015 02:35:07 PM txt,2,1,right,right,1,4.459
NA,Trial,Friday 15th of May 2015 02:35:07 PM txt,2,2,left,left,1,5.759
NA,Trial,Friday 15th of May 2015 02:35:07 PM txt,2,3,left,right,0,-3.439
NA,Trial,Friday 15th of May 2015 02:35:07 PM txt,2,4,left,left,1,1.123
NA,Trial,Friday 15th of May 2015 02:35:07 PM txt,2,5,right,left,0,-2.006
NA,Trial,Friday 15th of May 2015 02:35:07 PM txt,2,6,left,right,0,-3.547
NA,Trial,Friday 15th of May 2015 02:35:07 PM txt,2,7,right,right,1,5.395
NA,Trial,Friday 15th of May 2015 02:35:07 PM txt,2,8,left,left,1,6.687
NA,Trial,Friday 15th of May 2015 02:35:07 PM txt,2,9,right,right,1,3.815
NA,Trial,Friday 15th of May 2015 02:35:07 PM txt,2,10,left,left,1,1.327
NA,Trial,Friday 15th of May 2015 02:35:07 PM txt,2,11,right,right,1,2.567
NA,Trial,Friday 15th of May 2015 02:35:07 PM txt,2,12,right,right,1,3.839
NA,Trial,Friday 15th of May 2015 02:35:07 PM txt,2,13,right,left,0,-2.84
NA,Trial,Friday 15th of May 2015 02:35:07 PM txt,2,14,right,right,1,2.322
NA,Trial,Friday 15th of May 2015 02:35:07 PM txt,2,15,left,left,1,3.103
NA,Trial,Friday 15th of May 2015 02:35:07 PM txt,2,16,right,right,1,2.174
NA,Trial,Friday 15th of May 2015 02:35:07 PM txt,2,17,left,left,1,2.558
NA,Trial,Friday 15th of May 2015 02:35:07 PM txt,2,18,right,right,1,3.215
NA,Trial,Friday 15th of May 2015 02:35:07 PM txt,2,19,left,left,1,2.583
NA,Trial,Friday 15th of May 2015 02:35:07 PM txt,2,20,right,right,1,3.111
NA,Trial,Friday 15th of May 2015 02:35:07 PM txt,2,21,left,left,1,2.615
NA,Trial,Friday 15th of May 2015 02:35:07 PM txt,2,22,right,right,1,3.415
NA,Trial,Friday 15th of May 2015 02:35:07 PM txt,2,23,right,right,1,3.008
NA,Trial,Friday 15th of May 2015 02:35:07 PM txt,2,24,left,left,1,2.632
NA,Trial,Friday 15th of May 2015 02:35:07 PM txt,2,25,right,right,1,1.895
NA,Trial,Friday 15th of May 2015 02:35:07 PM txt,2,26,right,right,1,4.11
NA,Trial,Friday 15th of May 2015 02:35:07 PM txt,2,27,right,right,1,1.871
NA,Trial,Friday 15th of May 2015 02:35:07 PM txt,2,28,right,right,1,4.087
NA,Trial,Friday 15th of May 2015 02:35:07 PM txt,2,29,right,right,1,3.471
NA,Trial,Friday 15th of May 2015 02:35:07 PM txt,2,30,left,right,0,-4.895
NA,Trial,Friday 15th of May 2015 02:35:07 PM txt,2,31,right,left,0,-1.523
NA,Trial,Friday 15th of May 2015 02:35:07 PM txt,2,32,left,left,1,7.715
NA,Trial,Friday 15th of May 2015 02:35:07 PM txt,2,33,right,right,1,2.727
NA,Trial,Friday 15th of May 2015 02:35:07 PM txt,2,34,left,right,0,-4.031
NA,Trial,Friday 15th of May 2015 02:35:07 PM txt,2,35,left,left,1,3.083
NA,Trial,Friday 15th of May 2015 02:35:07 PM txt,2,36,left,right,0,-2.999
NA,Trial,Friday 15th of May 2015 02:35:07 PM txt,2,37,left,left,1,1.107
NA,Trial,Friday 15th of May 2015 02:35:07 PM txt,2,38,left,left,1,3.638
NA,Trial,Friday 15th of May 2015 02:35:07 PM txt,2,39,left,left,1,3.031
NA,Trial,Friday 15th of May 2015 02:35:07 PM txt,2,40,left,left,1,9.551
NA,Trial,Friday 15th of May 2015 02:35:07 PM txt,3,1,right,right,1,1.291
NA,Trial,Friday 15th of May 2015 02:35:07 PM txt,3,2,left,right,0,-6.503
NA,Trial,Friday 15th of May 2015 02:35:07 PM txt,3,3,left,left,1,1.307
NA,Trial,Friday 15th of May 2015 02:35:07 PM txt,3,4,right,right,1,0.951
NA,Trial,Friday 15th of May 2015 02:35:07 PM txt,3,5,left,right,0,-1.983
NA,Trial,Friday 15th of May 2015 02:35:07 PM txt,3,6,right,right,1,3.092
NA,Trial,Friday 15th of May 2015 02:35:07 PM txt,3,7,right,right,1,1.943
NA,Trial,Friday 15th of May 2015 02:35:07 PM txt,3,8,right,right,1,3.07
NA,Trial,Friday 15th of May 2015 02:35:07 PM txt,3,9,right,right,1,3.254
NA,Trial,Friday 15th of May 2015 02:35:07 PM txt,3,10,left,left,1,1.078
NA,Trial,Friday 15th of May 2015 02:35:07 PM txt,3,11,left,right,0,-4.127
NA,Trial,Friday 15th of May 2015 02:35:07 PM txt,3,12,right,right,1,1.667
NA,Trial,Friday 15th of May 2015 02:35:07 PM txt,3,13,right,right,1,3.727
NA,Trial,Friday 15th of May 2015 02:35:07 PM txt,3,14,left,left,1,1.246
NA,Trial,Friday 15th of May 2015 02:35:07 PM txt,3,15,right,right,1,1.094
NA,Trial,Friday 15th of May 2015 02:35:07 PM txt,3,16,right,right,1,2.303
NA,Trial,Friday 15th of May 2015 02:35:07 PM txt,3,17,left,right,0,-1.736
NA,Trial,Friday 15th of May 2015 02:35:07 PM txt,3,18,left,right,0,-0.867
NA,Trial,Friday 15th of May 2015 02:35:07 PM txt,3,19,right,right,1,3.979
NA,Trial,Friday 15th of May 2015 02:35:07 PM txt,3,20,right,right,1,4.583
NA,Trial,Friday 15th of May 2015 02:35:07 PM txt,3,21,left,left,1,1.016
NA,Trial,Friday 15th of May 2015 02:35:07 PM txt,3,22,left,right,0,-3.711
NA,Trial,Friday 15th of May 2015 02:35:07 PM txt,3,23,left,left,1,2.083
NA,Trial,Friday 15th of May 2015 02:35:07 PM txt,3,24,left,left,1,1.271
NA,Trial,Friday 15th of May 2015 02:35:07 PM txt,3,25,left,left,1,2.038
NA,Trial,Friday 15th of May 2015 02:35:07 PM txt,3,26,left,left,1,3.134
NA,Trial,Friday 15th of May 2015 02:35:07 PM txt,3,27,left,left,1,1.711
NA,Trial,Friday 15th of May 2015 02:35:07 PM txt,3,28,left,left,1,1.007
NA,Trial,Friday 15th of May 2015 02:35:07 PM txt,3,29,left,left,1,1.047
NA,Trial,Friday 15th of May 2015 02:35:07 PM txt,3,30,right,right,1,0.984
NA,Trial,Friday 15th of May 2015 02:35:07 PM txt,3,31,left,left,1,1.519
NA,Trial,Friday 15th of May 2015 02:35:07 PM txt,3,32,right,right,1,1.287
NA,Trial,Friday 15th of May 2015 02:35:07 PM txt,3,33,right,right,1,1.438
NA,Trial,Friday 15th of May 2015 02:35:07 PM txt,3,34,right,right,1,1.734
NA,Trial,Friday 15th of May 2015 02:35:07 PM txt,3,35,right,right,1,1.142
NA,Trial,Friday 15th of May 2015 02:35:07 PM txt,3,36,right,right,1,1.143
NA,Trial,Friday 15th of May 2015 02:35:07 PM txt,3,37,left,left,1,1.375
NA,Trial,Friday 15th of May 2015 02:35:07 PM txt,3,38,right,right,1,0.799
NA,Trial,Friday 15th of May 2015 02:35:07 PM txt,3,39,right,right,1,1.543
NA,Trial,Friday 15th of May 2015 02:35:07 PM txt,3,40,left,left,1,1.287
NA,Trial,Friday 15th of May 2015 02:35:07 PM txt,4,1,right,left,0,-1.076
NA,Trial,Friday 15th of May 2015 02:35:07 PM txt,4,2,left,left,1,2.267
NA,Trial,Friday 15th of May 2015 02:35:07 PM txt,4,3,right,left,0,-1.888
NA,Trial,Friday 15th of May 2015 02:35:07 PM txt,4,4,right,right,1,4.371
NA,Trial,Friday 15th of May 2015 02:35:07 PM txt,4,5,right,left,0,-1.902
NA,Trial,Friday 15th of May 2015 02:35:07 PM txt,4,6,right,left,0,-1.291
NA,Trial,Friday 15th of May 2015 02:35:07 PM txt,4,7,right,left,0,-8.282
NA,Trial,Friday 15th of May 2015 02:35:07 PM txt,4,8,left,left,1,6.235
NA,Trial,Friday 15th of May 2015 02:35:07 PM txt,4,9,left,left,1,2.11
NA,Trial,Friday 15th of May 2015 02:35:07 PM txt,4,10,left,left,1,1.151
NA,Trial,Friday 15th of May 2015 02:35:07 PM txt,4,11,right,right,1,3.743
NA,Trial,Friday 15th of May 2015 02:35:07 PM txt,4,12,left,left,1,2.479
NA,Trial,Friday 15th of May 2015 02:35:07 PM txt,4,13,left,right,0,-2.223
NA,Trial,Friday 15th of May 2015 02:35:07 PM txt,4,14,right,left,0,-0.771
NA,Trial,Friday 15th of May 2015 02:35:07 PM txt,4,15,right,right,1,3.115
NA,Trial,Friday 15th of May 2015 02:35:07 PM txt,4,16,left,left,1,1.288
NA,Trial,Friday 15th of May 2015 02:35:07 PM txt,4,17,left,left,1,4.296
NA,Trial,Friday 15th of May 2015 02:35:07 PM txt,4,18,right,right,1,7.454
NA,Trial,Friday 15th of May 2015 02:35:07 PM txt,4,19,left,left,1,1.839
NA,Trial,Friday 15th of May 2015 02:35:07 PM txt,4,20,right,right,1,1.095
NA,Trial,Friday 15th of May 2015 02:35:07 PM txt,4,21,left,left,1,1.271
NA,Trial,Friday 15th of May 2015 02:35:07 PM txt,4,22,right,right,1,1.143
NA,Trial,Friday 15th of May 2015 02:35:07 PM txt,4,23,left,right,0,-1.495
NA,Trial,Friday 15th of May 2015 02:35:07 PM txt,4,24,left,right,0,-2.875
NA,Trial,Friday 15th of May 2015 02:35:07 PM txt,4,25,right,right,1,4.002
NA,Trial,Friday 15th of May 2015 02:35:07 PM txt,4,26,left,right,0,-3.399
NA,Trial,Friday 15th of May 2015 02:35:07 PM txt,4,27,left,left,1,5.339
NA,Trial,Friday 15th of May 2015 02:35:07 PM txt,4,28,left,left,1,1.871
NA,Trial,Friday 15th of May 2015 02:35:07 PM txt,4,29,left,left,1,2.856
NA,Trial,Friday 15th of May 2015 02:35:07 PM txt,4,30,right,left,0,-2.296
NA,Trial,Friday 15th of May 2015 02:35:07 PM txt,4,31,right,right,1,1.515
NA,Trial,Friday 15th of May 2015 02:35:07 PM txt,4,32,left,left,1,2.951
NA,Trial,Friday 15th of May 2015 02:35:07 PM txt,4,33,left,right,0,-5.774
NA,Trial,Friday 15th of May 2015 02:35:07 PM txt,4,34,right,left,0,-2.235
NA,Trial,Friday 15th of May 2015 02:35:07 PM txt,4,35,left,right,0,-2.891
NA,Trial,Friday 15th of May 2015 02:35:07 PM txt,4,36,right,right,1,4.003
NA,Trial,Friday 15th of May 2015 02:35:07 PM txt,4,37,right,right,1,4.006
NA,Trial,Friday 15th of May 2015 02:35:07 PM txt,4,38,right,right,1,3.079
NA,Trial,Friday 15th of May 2015 02:35:07 PM txt,4,39,left,right,0,-3.783
NA,Trial,Friday 15th of May 2015 02:35:07 PM txt,4,40,right,right,1,4.507
NA,Trial,Friday 15th of May 2015 02:35:07 PM txt,5,1,right,right,1,1.011
NA,Trial,Friday 15th of May 2015 02:35:07 PM txt,5,2,left,right,0,-2.159
NA,Trial,Friday 15th of May 2015 02:35:07 PM txt,5,3,right,right,1,2.947
NA,Trial,Friday 15th of May 2015 02:35:07 PM txt,5,4,left,left,1,0.814
NA,Trial,Friday 15th of May 2015 02:35:07 PM txt,5,5,left,left,1,1.791
NA,Trial,Friday 15th of May 2015 02:35:07 PM txt,5,6,right,right,1,3.359
NA,Trial,Friday 15th of May 2015 02:35:07 PM txt,5,7,left,left,1,5.807
NA,Trial,Friday 15th of May 2015 02:35:07 PM txt,5,8,left,left,1,1.135
NA,Trial,Friday 15th of May 2015 02:35:07 PM txt,5,9,left,left,1,0.919
NA,Trial,Friday 15th of May 2015 02:35:07 PM txt,5,10,right,right,1,1.055
NA,Trial,Friday 15th of May 2015 02:35:07 PM txt,5,11,left,left,1,0.824
NA,Trial,Friday 15th of May 2015 02:35:07 PM txt,5,12,left,left,1,0.832
NA,Trial,Friday 15th of May 2015 02:35:07 PM txt,5,13,left,left,1,1.12
NA,Trial,Friday 15th of May 2015 02:35:07 PM txt,5,14,right,left,0,-1.424
NA,Trial,Friday 15th of May 2015 02:35:07 PM txt,5,15,right,left,0,-1.266
NA,Trial,Friday 15th of May 2015 02:35:07 PM txt,5,16,left,left,1,4.05
NA,Trial,Friday 15th of May 2015 02:35:07 PM txt,5,17,right,right,1,1.95
NA,Trial,Friday 15th of May 2015 02:35:07 PM txt,5,18,left,left,1,2.342
NA,Trial,Friday 15th of May 2015 02:35:07 PM txt,5,19,right,right,1,1.568
NA,Trial,Friday 15th of May 2015 02:35:07 PM txt,5,20,right,right,1,2.535
NA,Trial,Friday 15th of May 2015 02:35:07 PM txt,5,21,left,left,1,4.783
NA,Trial,Friday 15th of May 2015 02:35:07 PM txt,5,22,right,right,1,1.591
NA,Trial,Friday 15th of May 2015 02:35:07 PM txt,5,23,right,left,0,-2.422
NA,Trial,Friday 15th of May 2015 02:35:07 PM txt,5,24,left,left,1,3.723
NA,Trial,Friday 15th of May 2015 02:35:07 PM txt,5,25,right,right,1,1.127
NA,Trial,Friday 15th of May 2015 02:35:07 PM txt,5,26,right,right,1,3.471
NA,Trial,Friday 15th of May 2015 02:35:07 PM txt,5,27,left,left,1,1.071
NA,Trial,Friday 15th of May 2015 02:35:07 PM txt,5,28,left,right,0,-1.399
NA,Trial,Friday 15th of May 2015 02:35:07 PM txt,5,29,right,right,1,1.876
NA,Trial,Friday 15th of May 2015 02:35:07 PM txt,5,30,right,right,1,2.712
NA,Trial,Friday 15th of May 2015 02:35:07 PM txt,5,31,left,left,1,1.95
NA,Trial,Friday 15th of May 2015 02:35:07 PM txt,5,32,right,right,1,1.785
NA,Trial,Friday 15th of May 2015 02:35:07 PM txt,5,33,right,right,1,1.486
NA,Trial,Friday 15th of May 2015 02:35:07 PM txt,5,34,left,left,1,1.126
NA,Trial,Friday 15th of May 2015 02:35:07 PM txt,5,35,left,left,1,1.23
NA,Trial,Friday 15th of May 2015 02:35:07 PM txt,5,36,right,right,1,1.527
NA,Trial,Friday 15th of May 2015 02:35:07 PM txt,5,37,right,left,0,-1.167
NA,Trial,Friday 15th of May 2015 02:35:07 PM txt,5,38,left,left,1,2.739
NA,Trial,Friday 15th of May 2015 02:35:07 PM txt,5,39,right,right,1,1.487
NA,Trial,Friday 15th of May 2015 02:35:07 PM txt,5,40,left,left,1,2.903
NA,Trial,Friday 15th of May 2015 02:35:07 PM txt,6,1,right,right,1,1.948
NA,Trial,Friday 15th of May 2015 02:35:07 PM txt,6,2,left,left,1,0.814
NA,Trial,Friday 15th of May 2015 02:35:07 PM txt,6,3,left,left,1,0.967
NA,Trial,Friday 15th of May 2015 02:35:07 PM txt,6,4,right,right,1,1.127
NA,Trial,Friday 15th of May 2015 02:35:07 PM txt,6,5,left,left,1,1.127
NA,Trial,Friday 15th of May 2015 02:35:07 PM txt,6,6,right,right,1,0.943
NA,Trial,Friday 15th of May 2015 02:35:07 PM txt,6,7,right,right,1,2.152
NA,Trial,Friday 15th of May 2015 02:35:07 PM txt,6,8,right,right,1,1.295
NA,Trial,Friday 15th of May 2015 02:35:07 PM txt,6,9,left,right,0,-2.208
NA,Trial,Friday 15th of May 2015 02:35:07 PM txt,6,10,right,right,1,0.876
NA,Trial,Friday 15th of May 2015 02:35:07 PM txt,6,11,right,right,1,1.848
NA,Trial,Friday 15th of May 2015 02:35:07 PM txt,6,12,right,left,0,-0.703
NA,Trial,Friday 15th of May 2015 02:35:07 PM txt,6,13,left,left,1,2.627
NA,Trial,Friday 15th of May 2015 02:35:07 PM txt,6,14,left,left,1,1.614
NA,Trial,Friday 15th of May 2015 02:35:07 PM txt,6,15,right,right,1,2.423
NA,Trial,Friday 15th of May 2015 02:35:07 PM txt,6,16,left,left,1,1.078
NA,Trial,Friday 15th of May 2015 02:35:07 PM txt,6,17,left,left,1,1.623
NA,Trial,Friday 15th of May 2015 02:35:07 PM txt,6,18,right,left,0,-2.279
NA,Trial,Friday 15th of May 2015 02:35:07 PM txt,6,19,left,left,1,0.835
NA,Trial,Friday 15th of May 2015 02:35:07 PM txt,6,20,left,left,1,1.055
NA,Trial,Friday 15th of May 2015 02:35:07 PM txt,6,21,right,right,1,0.871
NA,Trial,Friday 15th of May 2015 02:35:07 PM txt,6,22,left,left,1,0.975
NA,Trial,Friday 15th of May 2015 02:35:07 PM txt,6,23,right,right,1,1.623
NA,Trial,Friday 15th of May 2015 02:35:07 PM txt,6,24,left,left,1,1.223
NA,Trial,Friday 15th of May 2015 02:35:07 PM txt,6,25,right,right,1,1.058
NA,Trial,Friday 15th of May 2015 02:35:07 PM txt,6,26,left,left,1,1.326
NA,Trial,Friday 15th of May 2015 02:35:07 PM txt,6,27,right,right,1,1.335
NA,Trial,Friday 15th of May 2015 02:35:07 PM txt,6,28,left,left,1,1.247
NA,Trial,Friday 15th of May 2015 02:35:07 PM txt,6,29,left,right,0,-1.127
NA,Trial,Friday 15th of May 2015 02:35:07 PM txt,6,30,left,left,1,0.763
NA,Trial,Friday 15th of May 2015 02:35:07 PM txt,6,31,right,right,1,2.023
NA,Trial,Friday 15th of May 2015 02:35:07 PM txt,6,32,left,right,0,-1.175
NA,Trial,Friday 15th of May 2015 02:35:07 PM txt,6,33,right,right,1,0.771
NA,Trial,Friday 15th of May 2015 02:35:07 PM txt,6,34,left,left,1,0.839
NA,Trial,Friday 15th of May 2015 02:35:07 PM txt,6,35,right,right,1,1.096
NA,Trial,Friday 15th of May 2015 02:35:07 PM txt,6,36,right,right,1,0.872
NA,Trial,Friday 15th of May 2015 02:35:07 PM txt,6,37,right,right,1,0.92
NA,Trial,Friday 15th of May 2015 02:35:07 PM txt,6,38,left,left,1,1.688
NA,Trial,Friday 15th of May 2015 02:35:07 PM txt,6,39,right,right,1,2.935
NA,Trial,Friday 15th of May 2015 02:35:07 PM txt,6,40,left,right,0,-1.318
NA,Trial,Friday 15th of May 2015 02:35:07 PM txt,7,1,right,right,1,0.683
NA,Trial,Friday 15th of May 2015 02:35:07 PM txt,7,2,right,right,1,1.319
NA,Trial,Friday 15th of May 2015 02:35:07 PM txt,7,3,right,left,0,-2.327
NA,Trial,Friday 15th of May 2015 02:35:07 PM txt,7,4,left,right,0,-1.267
NA,Trial,Friday 15th of May 2015 02:35:07 PM txt,7,5,left,right,0,-0.907
NA,Trial,Friday 15th of May 2015 02:35:07 PM txt,7,6,left,left,1,1.067
NA,Trial,Friday 15th of May 2015 02:35:07 PM txt,7,7,right,right,1,2.983
NA,Trial,Friday 15th of May 2015 02:35:07 PM txt,7,8,left,left,1,0.742
NA,Trial,Friday 15th of May 2015 02:35:07 PM txt,7,9,left,left,1,0.718
NA,Trial,Friday 15th of May 2015 02:35:07 PM txt,7,10,right,right,1,1.663
NA,Trial,Friday 15th of May 2015 02:35:07 PM txt,7,11,left,left,1,0.823
NA,Trial,Friday 15th of May 2015 02:35:07 PM txt,7,12,right,right,1,0.911
NA,Trial,Friday 15th of May 2015 02:35:07 PM txt,7,13,right,right,1,1.063
NA,Trial,Friday 15th of May 2015 02:35:07 PM txt,7,14,left,left,1,0.599
NA,Trial,Friday 15th of May 2015 02:35:07 PM txt,7,15,right,left,0,-1.007
NA,Trial,Friday 15th of May 2015 02:35:07 PM txt,7,16,right,right,1,1.939
NA,Trial,Friday 15th of May 2015 02:35:07 PM txt,7,17,left,left,1,1.335
NA,Trial,Friday 15th of May 2015 02:35:07 PM txt,7,18,right,left,0,-1.271
NA,Trial,Friday 15th of May 2015 02:35:07 PM txt,7,19,right,right,1,1.172
NA,Trial,Friday 15th of May 2015 02:35:07 PM txt,7,20,left,left,1,1.616
NA,Trial,Friday 15th of May 2015 02:35:07 PM txt,7,21,left,right,0,-1.143
NA,Trial,Friday 15th of May 2015 02:35:07 PM txt,7,22,left,left,1,1.236
NA,Trial,Friday 15th of May 2015 02:35:07 PM txt,7,23,right,left,0,-1.046
NA,Trial,Friday 15th of May 2015 02:35:07 PM txt,7,24,right,right,1,1.602
NA,Trial,Friday 15th of May 2015 02:35:07 PM txt,7,25,right,right,1,1.902
NA,Trial,Friday 15th of May 2015 02:35:07 PM txt,7,26,left,left,1,2.326
NA,Trial,Friday 15th of May 2015 02:35:07 PM txt,7,27,left,right,0,-0.679
NA,Trial,Friday 15th of May 2015 02:35:07 PM txt,7,28,left,left,1,2.483
NA,Trial,Friday 15th of May 2015 02:35:07 PM txt,7,29,right,left,0,-1.583
NA,Trial,Friday 15th of May 2015 02:35:07 PM txt,7,30,left,right,0,-0.675
NA,Trial,Friday 15th of May 2015 02:35:07 PM txt,7,31,left,left,1,0.995
NA,Trial,Friday 15th of May 2015 02:35:07 PM txt,7,32,left,right,0,-1.127
NA,Trial,Friday 15th of May 2015 02:35:07 PM txt,7,33,left,left,1,1.091
NA,Trial,Friday 15th of May 2015 02:35:07 PM txt,7,34,right,right,1,1.607
NA,Trial,Friday 15th of May 2015 02:35:07 PM txt,7,35,right,right,1,4.655
NA,Trial,Friday 15th of May 2015 02:35:07 PM txt,7,36,left,left,1,1.119
NA,Trial,Friday 15th of May 2015 02:35:07 PM txt,7,37,right,right,1,0.751
NA,Trial,Friday 15th of May 2015 02:35:07 PM txt,7,38,right,right,1,1.927
NA,Trial,Friday 15th of May 2015 02:35:07 PM txt,7,39,right,right,1,3.047
NA,Trial,Friday 15th of May 2015 02:35:07 PM txt,7,40,left,right,0,-1.671
NA,Trial,Friday 15th of May 2015 02:35:07 PM txt,8,1,right,right,1,1.627
NA,Trial,Friday 15th of May 2015 02:35:07 PM txt,8,2,right,right,1,1.398
NA,Trial,Friday 15th of May 2015 02:35:07 PM txt,8,3,left,right,0,-1.191
NA,Trial,Friday 15th of May 2015 02:35:07 PM txt,8,4,right,right,1,0.922
NA,Trial,Friday 15th of May 2015 02:35:07 PM txt,8,5,right,left,0,-0.654
NA,Trial,Friday 15th of May 2015 02:35:07 PM txt,8,6,right,right,1,0.834
NA,Trial,Friday 15th of May 2015 02:35:07 PM txt,8,7,left,right,0,-2.943
NA,Trial,Friday 15th of May 2015 02:35:07 PM txt,8,8,left,left,1,1.307
NA,Trial,Friday 15th of May 2015 02:35:07 PM txt,8,9,left,left,1,1.591
NA,Trial,Friday 15th of May 2015 02:35:07 PM txt,8,10,left,left,1,1.711
NA,Trial,Friday 15th of May 2015 02:35:07 PM txt,8,11,right,right,1,0.695
NA,Trial,Friday 15th of May 2015 02:35:07 PM txt,8,12,right,right,1,1.575
NA,Trial,Friday 15th of May 2015 02:35:07 PM txt,8,13,left,left,1,0.991
NA,Trial,Friday 15th of May 2015 02:35:07 PM txt,8,14,right,right,1,1.031
NA,Trial,Friday 15th of May 2015 02:35:07 PM txt,8,15,left,left,1,1.095
NA,Trial,Friday 15th of May 2015 02:35:07 PM txt,8,16,right,right,1,1.895
NA,Trial,Friday 15th of May 2015 02:35:07 PM txt,8,17,right,left,0,-1.903
NA,Trial,Friday 15th of May 2015 02:35:07 PM txt,8,18,right,right,1,0.659
NA,Trial,Friday 15th of May 2015 02:35:07 PM txt,8,19,right,right,1,1.199
NA,Trial,Friday 15th of May 2015 02:35:07 PM txt,8,20,right,left,0,-1.664
NA,Trial,Friday 15th of May 2015 02:35:07 PM txt,8,21,left,right,0,-1.083
NA,Trial,Friday 15th of May 2015 02:35:07 PM txt,8,22,right,right,1,0.731
NA,Trial,Friday 15th of May 2015 02:35:07 PM txt,8,23,left,right,0,-1.439
NA,Trial,Friday 15th of May 2015 02:35:07 PM txt,8,24,left,left,1,1.381
NA,Trial,Friday 15th of May 2015 02:35:07 PM txt,8,25,left,left,1,2.039
NA,Trial,Friday 15th of May 2015 02:35:07 PM txt,8,26,left,left,1,1.24
NA,Trial,Friday 15th of May 2015 02:35:07 PM txt,8,27,right,right,1,0.983
NA,Trial,Friday 15th of May 2015 02:35:07 PM txt,8,28,left,left,1,1.446
NA,Trial,Friday 15th of May 2015 02:35:07 PM txt,8,29,left,right,0,-1.598
NA,Trial,Friday 15th of May 2015 02:35:07 PM txt,8,30,left,left,1,1.218
NA,Trial,Friday 15th of May 2015 02:35:07 PM txt,8,31,right,left,0,-2.182
NA,Trial,Friday 15th of May 2015 02:35:07 PM txt,8,32,right,left,0,-1.259
NA,Trial,Friday 15th of May 2015 02:35:07 PM txt,8,33,left,left,1,1.243
NA,Trial,Friday 15th of May 2015 02:35:07 PM txt,8,34,left,left,1,5.895
NA,Trial,Friday 15th of May 2015 02:35:07 PM txt,8,35,left,left,1,1.503
NA,Trial,Friday 15th of May 2015 02:35:07 PM txt,8,36,right,left,0,-1.999
NA,Trial,Friday 15th of May 2015 02:35:07 PM txt,8,37,right,right,1,1.275
NA,Trial,Friday 15th of May 2015 02:35:07 PM txt,8,38,left,left,1,1.327
NA,Trial,Friday 15th of May 2015 02:35:07 PM txt,8,39,right,right,1,1.192
NA,Trial,Friday 15th of May 2015 02:35:07 PM txt,8,40,left,left,1,1.071
NA,Trial,Friday 15th of May 2015 02:35:07 PM txt,9,1,right,right,1,3.714
NA,Trial,Friday 15th of May 2015 02:35:07 PM txt,9,2,left,left,1,0.782
NA,Trial,Friday 15th of May 2015 02:35:07 PM txt,9,3,left,left,1,1.358
NA,Trial,Friday 15th of May 2015 02:35:07 PM txt,9,4,left,left,1,1.046
NA,Trial,Friday 15th of May 2015 02:35:07 PM txt,9,5,left,left,1,0.703
NA,Trial,Friday 15th of May 2015 02:35:07 PM txt,9,6,left,left,1,0.575
NA,Trial,Friday 15th of May 2015 02:35:07 PM txt,9,7,right,right,1,0.855
NA,Trial,Friday 15th of May 2015 02:35:07 PM txt,9,8,left,left,1,0.647
NA,Trial,Friday 15th of May 2015 02:35:07 PM txt,9,9,right,left,0,-0.975
NA,Trial,Friday 15th of May 2015 02:35:07 PM txt,9,10,right,right,1,0.643
NA,Trial,Friday 15th of May 2015 02:35:07 PM txt,9,11,left,left,1,2.223
NA,Trial,Friday 15th of May 2015 02:35:07 PM txt,9,12,left,right,0,-0.527
NA,Trial,Friday 15th of May 2015 02:35:07 PM txt,9,13,right,left,0,-0.715
NA,Trial,Friday 15th of May 2015 02:35:07 PM txt,9,14,right,right,1,0.707
NA,Trial,Friday 15th of May 2015 02:35:07 PM txt,9,15,left,right,0,-2.175
NA,Trial,Friday 15th of May 2015 02:35:07 PM txt,9,16,left,left,1,0.987
NA,Trial,Friday 15th of May 2015 02:35:07 PM txt,9,17,right,left,0,-1.287
NA,Trial,Friday 15th of May 2015 02:35:07 PM txt,9,18,left,left,1,2.195
NA,Trial,Friday 15th of May 2015 02:35:07 PM txt,9,19,left,left,1,3.407
NA,Trial,Friday 15th of May 2015 02:35:07 PM txt,9,20,right,right,1,2.367
NA,Trial,Friday 15th of May 2015 02:35:07 PM txt,9,21,right,right,1,2.455
NA,Trial,Friday 15th of May 2015 02:35:07 PM txt,9,22,left,right,0,-2.623
NA,Trial,Friday 15th of May 2015 02:35:07 PM txt,9,23,right,right,1,2.572
NA,Trial,Friday 15th of May 2015 02:35:07 PM txt,9,24,right,left,0,-1.191
NA,Trial,Friday 15th of May 2015 02:35:07 PM txt,9,25,left,right,0,-1.13
NA,Trial,Friday 15th of May 2015 02:35:07 PM txt,9,26,right,left,0,-2.826
NA,Trial,Friday 15th of May 2015 02:35:07 PM txt,9,27,right,right,1,4.115
NA,Trial,Friday 15th of May 2015 02:35:07 PM txt,9,28,right,right,1,2.455
NA,Trial,Friday 15th of May 2015 02:35:07 PM txt,9,29,left,left,1,2.111
NA,Trial,Friday 15th of May 2015 02:35:07 PM txt,9,30,left,right,0,-2.167
NA,Trial,Friday 15th of May 2015 02:35:07 PM txt,9,31,right,right,1,3.227
NA,Trial,Friday 15th of May 2015 02:35:07 PM txt,9,32,right,left,0,-1.799
NA,Trial,Friday 15th of May 2015 02:35:07 PM txt,9,33,right,right,1,1.003
NA,Trial,Friday 15th of May 2015 02:35:07 PM txt,9,34,left,left,1,4.023
NA,Trial,Friday 15th of May 2015 02:35:07 PM txt,9,35,right,left,0,-3.119
NA,Trial,Friday 15th of May 2015 02:35:07 PM txt,9,36,left,left,1,1.227
NA,Trial,Friday 15th of May 2015 02:35:07 PM txt,9,37,left,left,1,1.415
NA,Trial,Friday 15th of May 2015 02:35:07 PM txt,9,38,left,right,0,-1.632
NA,Trial,Friday 15th of May 2015 02:35:07 PM txt,9,39,right,right,1,1.899
NA,Trial,Friday 15th of May 2015 02:35:07 PM txt,9,40,right,right,1,1.399
NA,Trial,Friday 15th of May 2015 02:35:07 PM txt,10,1,left,left,1,1.483
NA,Trial,Friday 15th of May 2015 02:35:07 PM txt,10,2,right,right,1,0.607
NA,Trial,Friday 15th of May 2015 02:35:07 PM txt,10,3,left,right,0,-0.775
NA,Trial,Friday 15th of May 2015 02:35:07 PM txt,10,4,right,left,0,-1.748
NA,Trial,Friday 15th of May 2015 02:35:07 PM txt,10,5,left,right,0,-0.706
NA,Trial,Friday 15th of May 2015 02:35:07 PM txt,10,6,left,left,1,1.218
NA,Trial,Friday 15th of May 2015 02:35:07 PM txt,10,7,right,right,1,2.278
NA,Trial,Friday 15th of May 2015 02:35:07 PM txt,10,8,left,left,1,1.382
NA,Trial,Friday 15th of May 2015 02:35:07 PM txt,10,9,right,left,0,-1.135
NA,Trial,Friday 15th of May 2015 02:35:07 PM txt,10,10,left,left,1,0.907
NA,Trial,Friday 15th of May 2015 02:35:07 PM txt,10,11,left,left,1,3.903
NA,Trial,Friday 15th of May 2015 02:35:07 PM txt,10,12,right,right,1,2.263
NA,Trial,Friday 15th of May 2015 02:35:07 PM txt,10,13,right,right,1,1.431
NA,Trial,Friday 15th of May 2015 02:35:07 PM txt,10,14,left,left,1,0.928
NA,Trial,Friday 15th of May 2015 02:35:07 PM txt,10,15,right,left,0,-1.456
NA,Trial,Friday 15th of May 2015 02:35:07 PM txt,10,16,right,right,1,0.698
NA,Trial,Friday 15th of May 2015 02:35:07 PM txt,10,17,left,left,1,2.055
NA,Trial,Friday 15th of May 2015 02:35:07 PM txt,10,18,right,right,1,1.295
NA,Trial,Friday 15th of May 2015 02:35:07 PM txt,10,19,left,left,1,0.967
NA,Trial,Friday 15th of May 2015 02:35:07 PM txt,10,20,right,left,0,-2.615
NA,Trial,Friday 15th of May 2015 02:35:07 PM txt,10,21,right,left,0,-1.211
NA,Trial,Friday 15th of May 2015 02:35:07 PM txt,10,22,right,right,1,1.402
NA,Trial,Friday 15th of May 2015 02:35:07 PM txt,10,23,left,left,1,0.8
NA,Trial,Friday 15th of May 2015 02:35:07 PM txt,10,24,left,right,0,-1.838
NA,Trial,Friday 15th of May 2015 02:35:07 PM txt,10,25,right,right,1,1.923
NA,Trial,Friday 15th of May 2015 02:35:07 PM txt,10,26,right,right,1,1.271
NA,Trial,Friday 15th of May 2015 02:35:07 PM txt,10,27,left,left,1,0.983
NA,Trial,Friday 15th of May 2015 02:35:07 PM txt,10,28,left,left,1,1.759
NA,Trial,Friday 15th of May 2015 02:35:07 PM txt,10,29,left,right,0,-0.982
NA,Trial,Friday 15th of May 2015 02:35:07 PM txt,10,30,right,right,1,0.554
NA,Trial,Friday 15th of May 2015 02:35:07 PM txt,10,31,left,left,1,0.726
NA,Trial,Friday 15th of May 2015 02:35:07 PM txt,10,32,right,right,1,1.52
NA,Trial,Friday 15th of May 2015 02:35:07 PM txt,10,33,right,left,0,-1.382
NA,Trial,Friday 15th of May 2015 02:35:07 PM txt,10,34,left,right,0,-2.027
NA,Trial,Friday 15th of May 2015 02:35:07 PM txt,10,35,left,left,1,1.259
NA,Trial,Friday 15th of May 2015 02:35:07 PM txt,10,36,right,right,1,0.911
NA,Trial,Friday 15th of May 2015 02:35:07 PM txt,10,37,right,right,1,1.519
NA,Trial,Friday 15th of May 2015 02:35:07 PM txt,10,38,left,left,1,1.231
NA,Trial,Friday 15th of May 2015 02:35:07 PM txt,10,39,right,right,1,1.016
NA,Trial,Friday 15th of May 2015 02:35:07 PM txt,10,40,left,right,0,-1.239
NA,Trial,Friday 15th of May 2015 02:35:07 PM txt,11,1,right,right,1,1.403
NA,Trial,Friday 15th of May 2015 02:35:07 PM txt,11,2,right,right,1,1.503
NA,Trial,Friday 15th of May 2015 02:35:07 PM txt,11,3,right,right,1,0.879
NA,Trial,Friday 15th of May 2015 02:35:07 PM txt,11,4,left,left,1,0.759
NA,Trial,Friday 15th of May 2015 02:35:07 PM txt,11,5,right,right,1,0.719
NA,Trial,Friday 15th of May 2015 02:35:07 PM txt,11,6,right,right,1,0.759
NA,Trial,Friday 15th of May 2015 02:35:07 PM txt,11,7,left,right,0,-2.015
NA,Trial,Friday 15th of May 2015 02:35:07 PM txt,11,8,left,right,0,-0.667
NA,Trial,Friday 15th of May 2015 02:35:07 PM txt,11,9,left,left,1,0.779
NA,Trial,Friday 15th of May 2015 02:35:07 PM txt,11,10,right,right,1,0.72
NA,Trial,Friday 15th of May 2015 02:35:07 PM txt,11,11,right,left,0,-0.791
NA,Trial,Friday 15th of May 2015 02:35:07 PM txt,11,12,left,left,1,1.051
NA,Trial,Friday 15th of May 2015 02:35:07 PM txt,11,13,left,right,0,-1.639
NA,Trial,Friday 15th of May 2015 02:35:07 PM txt,11,14,left,left,1,1.187
NA,Trial,Friday 15th of May 2015 02:35:07 PM txt,11,15,left,right,0,-2.471
NA,Trial,Friday 15th of May 2015 02:35:07 PM txt,11,16,left,left,1,1.098
NA,Trial,Friday 15th of May 2015 02:35:07 PM txt,11,17,right,right,1,0.734
NA,Trial,Friday 15th of May 2015 02:35:07 PM txt,11,18,left,left,1,0.679
NA,Trial,Friday 15th of May 2015 02:35:07 PM txt,11,19,left,left,1,1.111
NA,Trial,Friday 15th of May 2015 02:35:07 PM txt,11,20,right,right,1,1.631
NA,Trial,Friday 15th of May 2015 02:35:07 PM txt,11,21,left,right,0,-2.319
NA,Trial,Friday 15th of May 2015 02:35:07 PM txt,11,22,right,left,0,-0.907
NA,Trial,Friday 15th of May 2015 02:35:07 PM txt,11,23,right,right,1,0.723
NA,Trial,Friday 15th of May 2015 02:35:07 PM txt,11,24,right,left,0,-1.231
NA,Trial,Friday 15th of May 2015 02:35:07 PM txt,11,25,right,right,1,0.875
NA,Trial,Friday 15th of May 2015 02:35:07 PM txt,11,26,left,left,1,1.151
NA,Trial,Friday 15th of May 2015 02:35:07 PM txt,11,27,left,left,1,1.376
NA,Trial,Friday 15th of May 2015 02:35:07 PM txt,11,28,left,left,1,0.695
NA,Trial,Friday 15th of May 2015 02:35:07 PM txt,11,29,right,left,0,-0.623
NA,Trial,Friday 15th of May 2015 02:35:07 PM txt,11,30,left,left,1,1.803
NA,Trial,Friday 15th of May 2015 02:35:07 PM txt,11,31,left,left,1,1.383
NA,Trial,Friday 15th of May 2015 02:35:07 PM txt,11,32,left,left,1,1.887
NA,Trial,Friday 15th of May 2015 02:35:07 PM txt,11,33,right,right,1,1.207
NA,Trial,Friday 15th of May 2015 02:35:07 PM txt,11,34,left,left,1,0.782
NA,Trial,Friday 15th of May 2015 02:35:07 PM txt,11,35,right,right,1,0.726
NA,Trial,Friday 15th of May 2015 02:35:07 PM txt,11,36,right,right,1,1.351
NA,Trial,Friday 15th of May 2015 02:35:07 PM txt,11,37,right,right,1,1.295
NA,Trial,Friday 15th of May 2015 02:35:07 PM txt,11,38,left,left,1,0.671
NA,Trial,Friday 15th of May 2015 02:35:07 PM txt,11,39,right,left,0,-0.895
NA,Trial,Friday 15th of May 2015 02:35:07 PM txt,11,40,right,left,0,-1.26
NA,Trial,Friday 15th of May 2015 02:35:07 PM txt,12,1,right,right,1,0.707
NA,Trial,Friday 15th of May 2015 02:35:07 PM txt,12,2,left,left,1,0.575
NA,Trial,Friday 15th of May 2015 02:35:07 PM txt,12,3,left,right,0,-0.543
NA,Trial,Friday 15th of May 2015 02:35:07 PM txt,12,4,left,left,1,1.235
NA,Trial,Friday 15th of May 2015 02:35:07 PM txt,12,5,right,right,1,0.912
NA,Trial,Friday 15th of May 2015 02:35:07 PM txt,12,6,left,left,1,0.68
NA,Trial,Friday 15th of May 2015 02:35:07 PM txt,12,7,right,right,1,0.599
NA,Trial,Friday 15th of May 2015 02:35:07 PM txt,12,8,right,right,1,1.462
NA,Trial,Friday 15th of May 2015 02:35:07 PM txt,12,9,left,left,1,0.762
NA,Trial,Friday 15th of May 2015 02:35:07 PM txt,12,10,right,right,1,0.746
NA,Trial,Friday 15th of May 2015 02:35:07 PM txt,12,11,left,right,0,-1.047
NA,Trial,Friday 15th of May 2015 02:35:07 PM txt,12,12,left,right,0,-0.899
NA,Trial,Friday 15th of May 2015 02:35:07 PM txt,12,13,left,right,0,-0.482
NA,Trial,Friday 15th of May 2015 02:35:07 PM txt,12,14,left,right,0,-0.498
NA,Trial,Friday 15th of May 2015 02:35:07 PM txt,12,15,left,left,1,3.044
NA,Trial,Friday 15th of May 2015 02:35:07 PM txt,12,16,left,right,0,-0.63
NA,Trial,Friday 15th of May 2015 02:35:07 PM txt,12,17,right,right,1,0.803
NA,Trial,Friday 15th of May 2015 02:35:07 PM txt,12,18,left,left,1,1.063
NA,Trial,Friday 15th of May 2015 02:35:07 PM txt,12,19,left,left,1,2.423
NA,Trial,Friday 15th of May 2015 02:35:07 PM txt,12,20,left,left,1,2.055
NA,Trial,Friday 15th of May 2015 02:35:07 PM txt,12,21,left,right,0,-1.702
NA,Trial,Friday 15th of May 2015 02:35:07 PM txt,12,22,right,right,1,0.826
NA,Trial,Friday 15th of May 2015 02:35:07 PM txt,12,23,right,left,0,-0.903
NA,Trial,Friday 15th of May 2015 02:35:07 PM txt,12,24,right,right,1,3.107
NA,Trial,Friday 15th of May 2015 02:35:07 PM txt,12,25,left,left,1,2.599
NA,Trial,Friday 15th of May 2015 02:35:07 PM txt,12,26,right,right,1,1.135
NA,Trial,Friday 15th of May 2015 02:35:07 PM txt,12,27,right,right,1,2.991
NA,Trial,Friday 15th of May 2015 02:35:07 PM txt,12,28,right,right,1,0.887
NA,Trial,Friday 15th of May 2015 02:35:07 PM txt,12,29,left,right,0,-1.752
NA,Trial,Friday 15th of May 2015 02:35:07 PM txt,12,30,left,right,0,-0.916
NA,Trial,Friday 15th of May 2015 02:35:07 PM txt,12,31,right,right,1,0.819
NA,Trial,Friday 15th of May 2015 02:35:07 PM txt,12,32,left,left,1,0.991
NA,Trial,Friday 15th of May 2015 02:35:07 PM txt,12,33,right,left,0,-1.031
NA,Trial,Friday 15th of May 2015 02:35:07 PM txt,12,34,right,left,0,-0.859
NA,Trial,Friday 15th of May 2015 02:35:07 PM txt,12,35,right,right,1,0.627
NA,Trial,Friday 15th of May 2015 02:35:07 PM txt,12,36,right,right,1,2.119
NA,Trial,Friday 15th of May 2015 02:35:07 PM txt,12,37,right,right,1,1.287
NA,Trial,Friday 15th of May 2015 02:35:07 PM txt,12,38,left,left,1,1.558
NA,Trial,Friday 15th of May 2015 02:35:07 PM txt,12,39,right,right,1,2.023
NA,Trial,Friday 15th of May 2015 02:35:07 PM txt,12,40,right,right,1,2.183
NA,Trial,Friday 15th of May 2015 02:35:07 PM txt,13,1,right,right,1,0.508
NA,Trial,Friday 15th of May 2015 02:35:07 PM txt,13,2,left,left,1,0.639
NA,Trial,Friday 15th of May 2015 02:35:07 PM txt,13,3,right,right,1,0.63
NA,Trial,Friday 15th of May 2015 02:35:07 PM txt,13,4,right,left,0,-0.742
NA,Trial,Friday 15th of May 2015 02:35:07 PM txt,13,5,right,left,0,-0.874
NA,Trial,Friday 15th of May 2015 02:35:07 PM txt,13,6,left,right,0,-0.571
NA,Trial,Friday 15th of May 2015 02:35:07 PM txt,13,7,right,right,1,1.291
NA,Trial,Friday 15th of May 2015 02:35:07 PM txt,13,8,right,left,0,-1.071
NA,Trial,Friday 15th of May 2015 02:35:07 PM txt,13,9,right,left,0,-0.851
NA,Trial,Friday 15th of May 2015 02:35:07 PM txt,13,10,left,left,1,0.899
NA,Trial,Friday 15th of May 2015 02:35:07 PM txt,13,11,left,right,0,-1.095
NA,Trial,Friday 15th of May 2015 02:35:07 PM txt,13,12,left,left,1,0.787
NA,Trial,Friday 15th of May 2015 02:35:07 PM txt,13,13,left,left,1,4.863
NA,Trial,Friday 15th of May 2015 02:35:07 PM txt,13,14,left,left,1,1.008
NA,Trial,Friday 15th of May 2015 02:35:07 PM txt,13,15,left,left,1,1.264
NA,Trial,Friday 15th of May 2015 02:35:07 PM txt,13,16,right,left,0,-1.207
NA,Trial,Friday 15th of May 2015 02:35:07 PM txt,13,17,left,left,1,0.795
NA,Trial,Friday 15th of May 2015 02:35:07 PM txt,13,18,left,right,0,-1.551
NA,Trial,Friday 15th of May 2015 02:35:07 PM txt,13,19,right,right,1,1.307
NA,Trial,Friday 15th of May 2015 02:35:07 PM txt,13,20,left,left,1,0.79
NA,Trial,Friday 15th of May 2015 02:35:07 PM txt,13,21,left,left,1,1.15
NA,Trial,Friday 15th of May 2015 02:35:07 PM txt,13,22,right,left,0,-0.998
NA,Trial,Friday 15th of May 2015 02:35:07 PM txt,13,23,left,left,1,0.835
NA,Trial,Friday 15th of May 2015 02:35:07 PM txt,13,24,left,left,1,0.767
NA,Trial,Friday 15th of May 2015 02:35:07 PM txt,13,25,left,right,0,-0.951
NA,Trial,Friday 15th of May 2015 02:35:07 PM txt,13,26,left,left,1,0.731
NA,Trial,Friday 15th of May 2015 02:35:07 PM txt,13,27,right,right,1,1.055
NA,Trial,Friday 15th of May 2015 02:35:07 PM txt,13,28,left,left,1,1.639
NA,Trial,Friday 15th of May 2015 02:35:07 PM txt,13,29,left,right,0,-1.671
NA,Trial,Friday 15th of May 2015 02:35:07 PM txt,13,30,right,right,1,0.858
NA,Trial,Friday 15th of May 2015 02:35:07 PM txt,13,31,left,left,1,0.942
NA,Trial,Friday 15th of May 2015 02:35:07 PM txt,13,32,right,right,1,1.127
NA,Trial,Friday 15th of May 2015 02:35:07 PM txt,13,33,right,left,0,-0.903
NA,Trial,Friday 15th of May 2015 02:35:07 PM txt,13,34,right,left,0,-0.699
NA,Trial,Friday 15th of May 2015 02:35:07 PM txt,13,35,right,right,1,0.883
NA,Trial,Friday 15th of May 2015 02:35:07 PM txt,13,36,right,right,1,1.775
NA,Trial,Friday 15th of May 2015 02:35:07 PM txt,13,37,left,left,1,0.959
NA,Trial,Friday 15th of May 2015 02:35:07 PM txt,13,38,right,right,1,1.439
NA,Trial,Friday 15th of May 2015 02:35:07 PM txt,13,39,right,left,0,-1.567
NA,Trial,Friday 15th of May 2015 02:35:07 PM txt,13,40,right,right,1,0.723
NA,Trial,Friday 15th of May 2015 02:35:07 PM txt,14,1,left,right,0,-0.619
NA,Trial,Friday 15th of May 2015 02:35:07 PM txt,14,2,right,left,0,-1.667
NA,Trial,Friday 15th of May 2015 02:35:07 PM txt,14,3,right,left,0,-0.771
NA,Trial,Friday 15th of May 2015 02:35:07 PM txt,14,4,right,right,1,1.291
NA,Trial,Friday 15th of May 2015 02:35:07 PM txt,14,5,right,left,0,-1.038
NA,Trial,Friday 15th of May 2015 02:35:07 PM txt,14,6,left,left,1,0.971
NA,Trial,Friday 15th of May 2015 02:35:07 PM txt,14,7,right,right,1,1.23
NA,Trial,Friday 15th of May 2015 02:35:07 PM txt,14,8,left,left,1,0.919
NA,Trial,Friday 15th of May 2015 02:35:07 PM txt,14,9,left,left,1,0.951
NA,Trial,Friday 15th of May 2015 02:35:07 PM txt,14,10,left,left,1,0.919
NA,Trial,Friday 15th of May 2015 02:35:07 PM txt,14,11,right,right,1,0.919
NA,Trial,Friday 15th of May 2015 02:35:07 PM txt,14,12,right,left,0,-0.999
NA,Trial,Friday 15th of May 2015 02:35:07 PM txt,14,13,left,left,1,0.875
NA,Trial,Friday 15th of May 2015 02:35:07 PM txt,14,14,right,right,1,0.903
NA,Trial,Friday 15th of May 2015 02:35:07 PM txt,14,15,right,left,0,-1.535
NA,Trial,Friday 15th of May 2015 02:35:07 PM txt,14,16,left,left,1,1.05
NA,Trial,Friday 15th of May 2015 02:35:07 PM txt,14,17,left,left,1,1.094
NA,Trial,Friday 15th of May 2015 02:35:07 PM txt,14,18,right,right,1,0.711
NA,Trial,Friday 15th of May 2015 02:35:07 PM txt,14,19,left,left,1,1.351
NA,Trial,Friday 15th of May 2015 02:35:07 PM txt,14,20,right,right,1,0.823
NA,Trial,Friday 15th of May 2015 02:35:07 PM txt,14,21,left,left,1,0.719
NA,Trial,Friday 15th of May 2015 02:35:07 PM txt,14,22,left,left,1,1.111
NA,Trial,Friday 15th of May 2015 02:35:07 PM txt,14,23,left,left,1,1.335
NA,Trial,Friday 15th of May 2015 02:35:07 PM txt,14,24,left,left,1,1.903
NA,Trial,Friday 15th of May 2015 02:35:07 PM txt,14,25,right,left,0,-2.351
NA,Trial,Friday 15th of May 2015 02:35:07 PM txt,14,26,left,left,1,0.643
NA,Trial,Friday 15th of May 2015 02:35:07 PM txt,14,27,left,right,0,-2.256
NA,Trial,Friday 15th of May 2015 02:35:07 PM txt,14,28,right,left,0,-0.62
NA,Trial,Friday 15th of May 2015 02:35:07 PM txt,14,29,right,left,0,-0.843
NA,Trial,Friday 15th of May 2015 02:35:07 PM txt,14,30,right,right,1,0.307
NA,Trial,Friday 15th of May 2015 02:35:07 PM txt,14,31,right,left,0,-0.863
NA,Trial,Friday 15th of May 2015 02:35:07 PM txt,14,32,left,left,1,0.851
NA,Trial,Friday 15th of May 2015 02:35:07 PM txt,14,33,left,left,1,0.862
NA,Trial,Friday 15th of May 2015 02:35:07 PM txt,14,34,left,left,1,2.558
NA,Trial,Friday 15th of May 2015 02:35:07 PM txt,14,35,right,right,1,0.934
NA,Trial,Friday 15th of May 2015 02:35:07 PM txt,14,36,right,left,0,-0.928
NA,Trial,Friday 15th of May 2015 02:35:07 PM txt,14,37,right,left,0,-0.778
NA,Trial,Friday 15th of May 2015 02:35:07 PM txt,14,38,right,right,1,0.883
NA,Trial,Friday 15th of May 2015 02:35:07 PM txt,14,39,left,left,1,2.791
NA,Trial,Friday 15th of May 2015 02:35:07 PM txt,14,40,left,left,1,2.776
NA,Trial,Friday 15th of May 2015 02:35:07 PM txt,15,1,right,left,0,-1.491
NA,Trial,Friday 15th of May 2015 02:35:07 PM txt,15,2,left,left,1,1.163
NA,Trial,Friday 15th of May 2015 02:35:07 PM txt,15,3,left,right,0,-0.743
NA,Trial,Friday 15th of May 2015 02:35:07 PM txt,15,4,right,left,0,-0.658
NA,Trial,Friday 15th of May 2015 02:35:07 PM txt,15,5,left,left,1,0.722
NA,Trial,Friday 15th of May 2015 02:35:07 PM txt,15,6,right,right,1,0.983
NA,Trial,Friday 15th of May 2015 02:35:07 PM txt,15,7,right,right,1,1.151
NA,Trial,Friday 15th of May 2015 02:35:07 PM txt,15,8,left,left,1,0.663
NA,Trial,Friday 15th of May 2015 02:35:07 PM txt,15,9,right,right,1,0.711
NA,Trial,Friday 15th of May 2015 02:35:07 PM txt,15,10,left,right,0,-1.215
NA,Trial,Friday 15th of May 2015 02:35:07 PM txt,15,11,left,left,1,0.868
NA,Trial,Friday 15th of May 2015 02:35:07 PM txt,15,12,right,right,1,1.415
NA,Trial,Friday 15th of May 2015 02:35:07 PM txt,15,13,left,left,1,0.607
NA,Trial,Friday 15th of May 2015 02:35:07 PM txt,15,14,left,right,0,-0.591
NA,Trial,Friday 15th of May 2015 02:35:07 PM txt,15,15,right,right,1,1.179
NA,Trial,Friday 15th of May 2015 02:35:07 PM txt,15,16,right,right,1,1.887
NA,Trial,Friday 15th of May 2015 02:35:07 PM txt,15,17,right,right,1,1.096
NA,Trial,Friday 15th of May 2015 02:35:07 PM txt,15,18,right,left,0,-0.791
NA,Trial,Friday 15th of May 2015 02:35:07 PM txt,15,19,right,right,1,0.619
NA,Trial,Friday 15th of May 2015 02:35:07 PM txt,15,20,right,right,1,1.079
NA,Trial,Friday 15th of May 2015 02:35:07 PM txt,15,21,right,right,1,0.862
NA,Trial,Friday 15th of May 2015 02:35:07 PM txt,15,22,left,left,1,0.806
NA,Trial,Friday 15th of May 2015 02:35:07 PM txt,15,23,right,right,1,0.678
NA,Trial,Friday 15th of May 2015 02:35:07 PM txt,15,24,right,right,1,0.918
NA,Trial,Friday 15th of May 2015 02:35:07 PM txt,15,25,left,left,1,2.27
NA,Trial,Friday 15th of May 2015 02:35:07 PM txt,15,26,left,right,0,-0.767
NA,Trial,Friday 15th of May 2015 02:35:07 PM txt,15,27,left,left,1,0.57
NA,Trial,Friday 15th of May 2015 02:35:07 PM txt,15,28,right,right,1,0.655
NA,Trial,Friday 15th of May 2015 02:35:07 PM txt,15,29,right,left,0,-0.855
NA,Trial,Friday 15th of May 2015 02:35:07 PM txt,15,30,left,left,1,1.003
NA,Trial,Friday 15th of May 2015 02:35:07 PM txt,15,31,right,right,1,1.007
NA,Trial,Friday 15th of May 2015 02:35:07 PM txt,15,32,right,right,1,0.935
NA,Trial,Friday 15th of May 2015 02:35:07 PM txt,15,33,left,left,1,0.703
NA,Trial,Friday 15th of May 2015 02:35:07 PM txt,15,34,left,right,0,-0.799
NA,Trial,Friday 15th of May 2015 02:35:07 PM txt,15,35,left,left,1,0.62
NA,Trial,Friday 15th of May 2015 02:35:07 PM txt,15,36,left,left,1,1.503
NA,Trial,Friday 15th of May 2015 02:35:07 PM txt,15,37,left,right,0,-0.839
NA,Trial,Friday 15th of May 2015 02:35:07 PM txt,15,38,left,left,1,0.635
NA,Trial,Friday 15th of May 2015 02:35:07 PM txt,15,39,right,right,1,1.199
NA,Trial,Friday 15th of May 2015 02:35:07 PM txt,15,40,left,left,1,1.527
NA,Trial,Friday 15th of May 2015 02:35:07 PM txt,16,1,left,left,1,0.9
NA,Trial,Friday 15th of May 2015 02:35:07 PM txt,16,2,left,left,1,1.247
NA,Trial,Friday 15th of May 2015 02:35:07 PM txt,16,3,left,left,1,0.792
NA,Trial,Friday 15th of May 2015 02:35:07 PM txt,16,4,left,right,0,-0.696
NA,Trial,Friday 15th of May 2015 02:35:07 PM txt,16,5,right,left,0,-0.572
NA,Trial,Friday 15th of May 2015 02:35:07 PM txt,16,6,left,right,0,-0.619
NA,Trial,Friday 15th of May 2015 02:35:07 PM txt,16,7,left,left,1,1.066
NA,Trial,Friday 15th of May 2015 02:35:07 PM txt,16,8,right,right,1,1.23
NA,Trial,Friday 15th of May 2015 02:35:07 PM txt,16,9,right,right,1,1.374
NA,Trial,Friday 15th of May 2015 02:35:07 PM txt,16,10,right,right,1,1.166
NA,Trial,Friday 15th of May 2015 02:35:07 PM txt,16,11,left,left,1,0.902
NA,Trial,Friday 15th of May 2015 02:35:07 PM txt,16,12,left,left,1,0.918
NA,Trial,Friday 15th of May 2015 02:35:07 PM txt,16,13,right,right,1,1.135
NA,Trial,Friday 15th of May 2015 02:35:07 PM txt,16,14,left,left,1,0.919
NA,Trial,Friday 15th of May 2015 02:35:07 PM txt,16,15,right,right,1,0.919
NA,Trial,Friday 15th of May 2015 02:35:07 PM txt,16,16,right,left,0,-0.967
NA,Trial,Friday 15th of May 2015 02:35:07 PM txt,16,17,right,right,1,1.163
NA,Trial,Friday 15th of May 2015 02:35:07 PM txt,16,18,left,right,0,-1.471
NA,Trial,Friday 15th of May 2015 02:35:07 PM txt,16,19,left,left,1,0.603
NA,Trial,Friday 15th of May 2015 02:35:07 PM txt,16,20,right,right,1,0.935
NA,Trial,Friday 15th of May 2015 02:35:07 PM txt,16,21,right,right,1,1.343
NA,Trial,Friday 15th of May 2015 02:35:07 PM txt,16,22,right,right,1,1.11
NA,Trial,Friday 15th of May 2015 02:35:07 PM txt,16,23,right,right,1,1.071
NA,Trial,Friday 15th of May 2015 02:35:07 PM txt,16,24,right,left,0,-0.832
NA,Trial,Friday 15th of May 2015 02:35:07 PM txt,16,25,right,right,1,0.723
NA,Trial,Friday 15th of May 2015 02:35:07 PM txt,16,26,right,right,1,1.023
NA,Trial,Friday 15th of May 2015 02:35:07 PM txt,16,27,right,left,0,-1.223
NA,Trial,Friday 15th of May 2015 02:35:07 PM txt,16,28,left,right,0,-0.867
NA,Trial,Friday 15th of May 2015 02:35:07 PM txt,16,29,left,left,1,1.483
NA,Trial,Friday 15th of May 2015 02:35:07 PM txt,16,30,left,left,1,2.071
NA,Trial,Friday 15th of May 2015 02:35:07 PM txt,16,31,right,right,1,1.135
NA,Trial,Friday 15th of May 2015 02:35:07 PM txt,16,32,left,left,1,0.696
NA,Trial,Friday 15th of May 2015 02:35:07 PM txt,16,33,left,left,1,1.288
NA,Trial,Friday 15th of May 2015 02:35:07 PM txt,16,34,right,right,1,0.816
NA,Trial,Friday 15th of May 2015 02:35:07 PM txt,16,35,left,left,1,1
NA,Trial,Friday 15th of May 2015 02:35:07 PM txt,16,36,left,right,0,-1.4
NA,Trial,Friday 15th of May 2015 02:35:07 PM txt,16,37,right,right,1,0.611
NA,Trial,Friday 15th of May 2015 02:35:07 PM txt,16,38,left,left,1,0.647
NA,Trial,Friday 15th of May 2015 02:35:07 PM txt,16,39,right,right,1,0.734
NA,Trial,Friday 15th of May 2015 02:35:07 PM txt,16,40,left,left,1,0.654
NA,Trial,Friday 15th of May 2015 02:35:07 PM txt,17,1,right,right,1,1.267
NA,Trial,Friday 15th of May 2015 02:35:07 PM txt,17,2,right,left,0,-1.43
NA,Trial,Friday 15th of May 2015 02:35:07 PM txt,17,3,right,right,1,0.563
NA,Trial,Friday 15th of May 2015 02:35:07 PM txt,17,4,left,left,1,0.695
NA,Trial,Friday 15th of May 2015 02:35:07 PM txt,17,5,right,right,1,1.047
NA,Trial,Friday 15th of May 2015 02:35:07 PM txt,17,6,right,right,1,1.247
NA,Trial,Friday 15th of May 2015 02:35:07 PM txt,17,7,right,left,0,-0.687
NA,Trial,Friday 15th of May 2015 02:35:07 PM txt,17,8,left,left,1,2.275
NA,Trial,Friday 15th of May 2015 02:35:07 PM txt,17,9,left,left,1,2.727
NA,Trial,Friday 15th of May 2015 02:35:07 PM txt,17,10,left,left,1,1.358
NA,Trial,Friday 15th of May 2015 02:35:07 PM txt,17,11,left,left,1,0.983
NA,Trial,Friday 15th of May 2015 02:35:07 PM txt,17,12,right,right,1,1.607
NA,Trial,Friday 15th of May 2015 02:35:07 PM txt,17,13,left,left,1,1.103
NA,Trial,Friday 15th of May 2015 02:35:07 PM txt,17,14,right,right,1,1.143
NA,Trial,Friday 15th of May 2015 02:35:07 PM txt,17,15,left,left,1,0.839
NA,Trial,Friday 15th of May 2015 02:35:07 PM txt,17,16,left,right,0,-1.511
NA,Trial,Friday 15th of May 2015 02:35:07 PM txt,17,17,left,left,1,0.571
NA,Trial,Friday 15th of May 2015 02:35:07 PM txt,17,18,left,left,1,1.215
NA,Trial,Friday 15th of May 2015 02:35:07 PM txt,17,19,left,left,1,1.047
NA,Trial,Friday 15th of May 2015 02:35:07 PM txt,17,20,right,right,1,1.487
NA,Trial,Friday 15th of May 2015 02:35:07 PM txt,17,21,left,right,0,-1.072
NA,Trial,Friday 15th of May 2015 02:35:07 PM txt,17,22,right,left,0,-0.604
NA,Trial,Friday 15th of May 2015 02:35:07 PM txt,17,23,left,tooFast,2,-0.188
NA,Trial,Friday 15th of May 2015 02:35:07 PM txt,17,24,right,right,1,0.971
NA,Trial,Friday 15th of May 2015 02:35:07 PM txt,17,25,left,left,1,5.214
NA,Trial,Friday 15th of May 2015 02:35:07 PM txt,17,26,left,left,1,0.943
NA,Trial,Friday 15th of May 2015 02:35:07 PM txt,17,27,left,right,0,-1.151
NA,Trial,Friday 15th of May 2015 02:35:07 PM txt,17,28,right,right,1,1.731
NA,Trial,Friday 15th of May 2015 02:35:07 PM txt,17,29,right,right,1,1.936
NA,Trial,Friday 15th of May 2015 02:35:07 PM txt,17,30,left,left,1,0.887
NA,Trial,Friday 15th of May 2015 02:35:07 PM txt,17,31,right,right,1,1.014
NA,Trial,Friday 15th of May 2015 02:35:07 PM txt,17,32,right,right,1,1.782
NA,Trial,Friday 15th of May 2015 02:35:07 PM txt,17,33,right,right,1,1.526
NA,Trial,Friday 15th of May 2015 02:35:07 PM txt,17,34,right,right,1,1.246
NA,Trial,Friday 15th of May 2015 02:35:07 PM txt,17,35,left,left,1,2.222
NA,Trial,Friday 15th of May 2015 02:35:07 PM txt,17,36,right,right,1,1.014
NA,Trial,Friday 15th of May 2015 02:35:07 PM txt,17,37,right,right,1,1.103
NA,Trial,Friday 15th of May 2015 02:35:07 PM txt,17,38,left,right,0,-1.663
NA,Trial,Friday 15th of May 2015 02:35:07 PM txt,17,39,left,left,1,0.731
NA,Trial,Friday 15th of May 2015 02:35:07 PM txt,17,40,right,left,0,-1.639
NA,Trial,Friday 15th of May 2015 02:35:07 PM txt,18,1,left,left,1,0.892
NA,Trial,Friday 15th of May 2015 02:35:07 PM txt,18,2,left,left,1,0.895
NA,Trial,Friday 15th of May 2015 02:35:07 PM txt,18,3,right,right,1,1.447
NA,Trial,Friday 15th of May 2015 02:35:07 PM txt,18,4,right,left,0,-0.831
NA,Trial,Friday 15th of May 2015 02:35:07 PM txt,18,5,right,left,0,-0.915
NA,Trial,Friday 15th of May 2015 02:35:07 PM txt,18,6,left,left,1,0.763
NA,Trial,Friday 15th of May 2015 02:35:07 PM txt,18,7,right,left,0,-2.615
NA,Trial,Friday 15th of May 2015 02:35:07 PM txt,18,8,left,left,1,1.611
NA,Trial,Friday 15th of May 2015 02:35:07 PM txt,18,9,left,right,0,-2.247
NA,Trial,Friday 15th of May 2015 02:35:07 PM txt,18,10,right,right,1,1.651
NA,Trial,Friday 15th of May 2015 02:35:07 PM txt,18,11,left,left,1,0.88
NA,Trial,Friday 15th of May 2015 02:35:07 PM txt,18,12,right,right,1,1.072
NA,Trial,Friday 15th of May 2015 02:35:07 PM txt,18,13,right,left,0,-1.416
NA,Trial,Friday 15th of May 2015 02:35:07 PM txt,18,14,right,right,1,1.54
NA,Trial,Friday 15th of May 2015 02:35:07 PM txt,18,15,right,right,1,1.599
NA,Trial,Friday 15th of May 2015 02:35:07 PM txt,18,16,left,right,0,-1.79
NA,Trial,Friday 15th of May 2015 02:35:07 PM txt,18,17,right,right,1,3.242
NA,Trial,Friday 15th of May 2015 02:35:07 PM txt,18,18,right,left,0,-0.887
NA,Trial,Friday 15th of May 2015 02:35:07 PM txt,18,19,left,right,0,-1.29
NA,Trial,Friday 15th of May 2015 02:35:07 PM txt,18,20,right,left,0,-0.819
NA,Trial,Friday 15th of May 2015 02:35:07 PM txt,18,21,right,right,1,1.355
NA,Trial,Friday 15th of May 2015 02:35:07 PM txt,18,22,right,right,1,2.103
NA,Trial,Friday 15th of May 2015 02:35:07 PM txt,18,23,right,right,1,2.351
NA,Trial,Friday 15th of May 2015 02:35:07 PM txt,18,24,left,right,0,-3.199
NA,Trial,Friday 15th of May 2015 02:35:07 PM txt,18,25,right,right,1,2.034
NA,Trial,Friday 15th of May 2015 02:35:07 PM txt,18,26,left,left,1,0.831
NA,Trial,Friday 15th of May 2015 02:35:07 PM txt,18,27,left,left,1,0.887
NA,Trial,Friday 15th of May 2015 02:35:07 PM txt,18,28,left,left,1,1.103
NA,Trial,Friday 15th of May 2015 02:35:07 PM txt,18,29,right,right,1,1.039
NA,Trial,Friday 15th of May 2015 02:35:07 PM txt,18,30,left,right,0,-1.495
NA,Trial,Friday 15th of May 2015 02:35:07 PM txt,18,31,right,left,0,-0.691
NA,Trial,Friday 15th of May 2015 02:35:07 PM txt,18,32,left,left,1,1.099
NA,Trial,Friday 15th of May 2015 02:35:07 PM txt,18,33,left,right,0,-1.663
NA,Trial,Friday 15th of May 2015 02:35:07 PM txt,18,34,left,left,1,1.027
NA,Trial,Friday 15th of May 2015 02:35:07 PM txt,18,35,left,left,1,1.128
NA,Trial,Friday 15th of May 2015 02:35:07 PM txt,18,36,left,left,1,1.408
NA,Trial,Friday 15th of May 2015 02:35:07 PM txt,18,37,right,right,1,1.248
NA,Trial,Friday 15th of May 2015 02:35:07 PM txt,18,38,left,left,1,0.982
NA,Trial,Friday 15th of May 2015 02:35:07 PM txt,18,39,right,right,1,1.03
NA,Trial,Friday 15th of May 2015 02:35:07 PM txt,18,40,left,right,0,-1.502
NA,Trial,Friday 15th of May 2015 02:35:07 PM txt,19,1,left,left,1,1.491
NA,Trial,Friday 15th of May 2015 02:35:07 PM txt,19,2,right,right,1,0.711
NA,Trial,Friday 15th of May 2015 02:35:07 PM txt,19,3,left,right,0,-1.127
NA,Trial,Friday 15th of May 2015 02:35:07 PM txt,19,4,right,right,1,1.515
NA,Trial,Friday 15th of May 2015 02:35:07 PM txt,19,5,right,right,1,1.343
NA,Trial,Friday 15th of May 2015 02:35:07 PM txt,19,6,left,left,1,1.128
NA,Trial,Friday 15th of May 2015 02:35:07 PM txt,19,7,right,left,0,-1.263
NA,Trial,Friday 15th of May 2015 02:35:07 PM txt,19,8,left,left,1,0.716
NA,Trial,Friday 15th of May 2015 02:35:07 PM txt,19,9,right,right,1,0.775
NA,Trial,Friday 15th of May 2015 02:35:07 PM txt,19,10,right,left,0,-1.319
NA,Trial,Friday 15th of May 2015 02:35:07 PM txt,19,11,right,right,1,1.178
NA,Trial,Friday 15th of May 2015 02:35:07 PM txt,19,12,left,right,0,-1.094
NA,Trial,Friday 15th of May 2015 02:35:07 PM txt,19,13,right,left,0,-0.658
NA,Trial,Friday 15th of May 2015 02:35:07 PM txt,19,14,left,right,0,-0.61
NA,Trial,Friday 15th of May 2015 02:35:07 PM txt,19,15,left,right,0,-0.722
NA,Trial,Friday 15th of May 2015 02:35:07 PM txt,19,16,right,right,1,0.675
NA,Trial,Friday 15th of May 2015 02:35:07 PM txt,19,17,left,right,0,-1.319
NA,Trial,Friday 15th of May 2015 02:35:07 PM txt,19,18,left,left,1,0.771
NA,Trial,Friday 15th of May 2015 02:35:07 PM txt,19,19,left,right,0,-0.791
NA,Trial,Friday 15th of May 2015 02:35:07 PM txt,19,20,right,right,1,1.059
NA,Trial,Friday 15th of May 2015 02:35:07 PM txt,19,21,right,right,1,0.928
NA,Trial,Friday 15th of May 2015 02:35:07 PM txt,19,22,left,left,1,3.303
NA,Trial,Friday 15th of May 2015 02:35:07 PM txt,19,23,left,right,0,-1.111
NA,Trial,Friday 15th of May 2015 02:35:07 PM txt,19,24,left,right,0,-0.803
NA,Trial,Friday 15th of May 2015 02:35:07 PM txt,19,25,left,right,0,-0.827
NA,Trial,Friday 15th of May 2015 02:35:07 PM txt,19,26,right,right,1,1.075
NA,Trial,Friday 15th of May 2015 02:35:07 PM txt,19,27,left,left,1,1.647
NA,Trial,Friday 15th of May 2015 02:35:07 PM txt,19,28,right,left,0,-2.855
NA,Trial,Friday 15th of May 2015 02:35:07 PM txt,19,29,left,left,1,1.347
NA,Trial,Friday 15th of May 2015 02:35:07 PM txt,19,30,left,right,0,-3.455
NA,Trial,Friday 15th of May 2015 02:35:07 PM txt,19,31,left,left,1,4.708
NA,Trial,Friday 15th of May 2015 02:35:07 PM txt,19,32,right,left,0,-0.911
NA,Trial,Friday 15th of May 2015 02:35:07 PM txt,19,33,right,left,0,-2.274
NA,Trial,Friday 15th of May 2015 02:35:07 PM txt,19,34,right,left,0,-7.298
NA,Trial,Friday 15th of May 2015 02:35:07 PM txt,19,35,right,right,1,3.523
NA,Trial,Friday 15th of May 2015 02:35:07 PM txt,19,36,left,left,1,1.063
NA,Trial,Friday 15th of May 2015 02:35:07 PM txt,19,37,left,left,1,0.911
NA,Trial,Friday 15th of May 2015 02:35:07 PM txt,19,38,right,right,1,1.679
NA,Trial,Friday 15th of May 2015 02:35:07 PM txt,19,39,right,right,1,2.935
NA,Trial,Friday 15th of May 2015 02:35:07 PM txt,19,40,right,right,1,1.007
NA,Trial,Friday 15th of May 2015 02:35:07 PM txt,20,1,left,left,1,1.052
NA,Trial,Friday 15th of May 2015 02:35:07 PM txt,20,2,left,right,0,-0.583
NA,Trial,Friday 15th of May 2015 02:35:07 PM txt,20,3,left,left,1,2.283
NA,Trial,Friday 15th of May 2015 02:35:07 PM txt,20,4,left,left,1,0.687
NA,Trial,Friday 15th of May 2015 02:35:07 PM txt,20,5,left,left,1,1.463
NA,Trial,Friday 15th of May 2015 02:35:07 PM txt,20,6,left,right,0,-1.502
NA,Trial,Friday 15th of May 2015 02:35:07 PM txt,20,7,left,left,1,0.754
NA,Trial,Friday 15th of May 2015 02:35:07 PM txt,20,8,right,right,1,2.726
NA,Trial,Friday 15th of May 2015 02:35:07 PM txt,20,9,left,left,1,4.11
NA,Trial,Friday 15th of May 2015 02:35:07 PM txt,20,10,left,left,1,2.207
NA,Trial,Friday 15th of May 2015 02:35:07 PM txt,20,11,right,left,0,-2.263
NA,Trial,Friday 15th of May 2015 02:35:07 PM txt,20,12,right,right,1,1.587
NA,Trial,Friday 15th of May 2015 02:35:07 PM txt,20,13,right,right,1,2.199
NA,Trial,Friday 15th of May 2015 02:35:07 PM txt,20,14,left,left,1,2.151
NA,Trial,Friday 15th of May 2015 02:35:07 PM txt,20,15,right,right,1,1.215
NA,Trial,Friday 15th of May 2015 02:35:07 PM txt,20,16,right,right,1,1.063
NA,Trial,Friday 15th of May 2015 02:35:07 PM txt,20,17,right,left,0,-0.999
NA,Trial,Friday 15th of May 2015 02:35:07 PM txt,20,18,right,right,1,0.779
NA,Trial,Friday 15th of May 2015 02:35:07 PM txt,20,19,right,right,1,0.831
NA,Trial,Friday 15th of May 2015 02:35:07 PM txt,20,20,right,right,1,0.775
NA,Trial,Friday 15th of May 2015 02:35:07 PM txt,20,21,right,right,1,0.927
NA,Trial,Friday 15th of May 2015 02:35:07 PM txt,20,22,left,right,0,-0.863
NA,Trial,Friday 15th of May 2015 02:35:07 PM txt,20,23,right,right,1,0.939
NA,Trial,Friday 15th of May 2015 02:35:07 PM txt,20,24,right,right,1,1.079
NA,Trial,Friday 15th of May 2015 02:35:07 PM txt,20,25,left,right,0,-1.078
NA,Trial,Friday 15th of May 2015 02:35:07 PM txt,20,26,left,right,0,-0.597
NA,Trial,Friday 15th of May 2015 02:35:07 PM txt,20,27,left,right,0,-0.739
NA,Trial,Friday 15th of May 2015 02:35:07 PM txt,20,28,left,right,0,-0.667
NA,Trial,Friday 15th of May 2015 02:35:07 PM txt,20,29,right,left,0,-1.091
NA,Trial,Friday 15th of May 2015 02:35:07 PM txt,20,30,right,right,1,1.435
NA,Trial,Friday 15th of May 2015 02:35:07 PM txt,20,31,left,left,1,1.118
NA,Trial,Friday 15th of May 2015 02:35:07 PM txt,20,32,left,right,0,-1.798
NA,Trial,Friday 15th of May 2015 02:35:07 PM txt,20,33,right,right,1,0.834
NA,Trial,Friday 15th of May 2015 02:35:07 PM txt,20,34,left,left,1,0.791
NA,Trial,Friday 15th of May 2015 02:35:07 PM txt,20,35,right,left,0,-1.311
NA,Trial,Friday 15th of May 2015 02:35:07 PM txt,20,36,right,right,1,2.467
NA,Trial,Friday 15th of May 2015 02:35:07 PM txt,20,37,right,right,1,2.311
NA,Trial,Friday 15th of May 2015 02:35:07 PM txt,20,38,left,left,1,2.047
NA,Trial,Friday 15th of May 2015 02:35:07 PM txt,20,39,left,left,1,1.399
NA,Trial,Friday 15th of May 2015 02:35:07 PM txt,20,40,right,left,0,-4.839
NA,Trial,Friday 15th of May 2015 02:35:07 PM txt,21,1,right,right,1,1.324
NA,Trial,Friday 15th of May 2015 02:35:07 PM txt,21,2,left,left,1,1.407
NA,Trial,Friday 15th of May 2015 02:35:07 PM txt,21,3,right,right,1,1.352
NA,Trial,Friday 15th of May 2015 02:35:07 PM txt,21,4,left,left,1,0.999
NA,Trial,Friday 15th of May 2015 02:35:07 PM txt,21,5,right,right,1,1.583
NA,Trial,Friday 15th of May 2015 02:35:07 PM txt,21,6,right,right,1,0.831
NA,Trial,Friday 15th of May 2015 02:35:07 PM txt,21,7,left,left,1,1.335
NA,Trial,Friday 15th of May 2015 02:35:07 PM txt,21,8,left,right,0,-0.631
NA,Trial,Friday 15th of May 2015 02:35:07 PM txt,21,9,right,left,0,-0.547
NA,Trial,Friday 15th of May 2015 02:35:07 PM txt,21,10,right,right,1,0.747
NA,Trial,Friday 15th of May 2015 02:35:07 PM txt,21,11,left,left,1,0.583
NA,Trial,Friday 15th of May 2015 02:35:07 PM txt,21,12,left,right,0,-0.583
NA,Trial,Friday 15th of May 2015 02:35:07 PM txt,21,13,left,left,1,0.875
NA,Trial,Friday 15th of May 2015 02:35:07 PM txt,21,14,right,right,1,1.36
NA,Trial,Friday 15th of May 2015 02:35:07 PM txt,21,15,right,left,0,-0.711
NA,Trial,Friday 15th of May 2015 02:35:07 PM txt,21,16,right,right,1,0.539
NA,Trial,Friday 15th of May 2015 02:35:07 PM txt,21,17,left,left,1,1.023
NA,Trial,Friday 15th of May 2015 02:35:07 PM txt,21,18,right,right,1,0.831
NA,Trial,Friday 15th of May 2015 02:35:07 PM txt,21,19,left,left,1,0.928
NA,Trial,Friday 15th of May 2015 02:35:07 PM txt,21,20,right,right,1,0.735
NA,Trial,Friday 15th of May 2015 02:35:07 PM txt,21,21,left,left,1,1.542
NA,Trial,Friday 15th of May 2015 02:35:07 PM txt,21,22,right,right,1,0.67
NA,Trial,Friday 15th of May 2015 02:35:07 PM txt,21,23,left,left,1,0.774
NA,Trial,Friday 15th of May 2015 02:35:07 PM txt,21,24,left,right,0,-0.758
NA,Trial,Friday 15th of May 2015 02:35:07 PM txt,21,25,left,left,1,0.555
NA,Trial,Friday 15th of May 2015 02:35:07 PM txt,21,26,left,left,1,0.927
NA,Trial,Friday 15th of May 2015 02:35:07 PM txt,21,27,left,left,1,1.551
NA,Trial,Friday 15th of May 2015 02:35:07 PM txt,21,28,right,right,1,0.671
NA,Trial,Friday 15th of May 2015 02:35:07 PM txt,21,29,right,right,1,1.175
NA,Trial,Friday 15th of May 2015 02:35:07 PM txt,21,30,right,left,0,-1.367
NA,Trial,Friday 15th of May 2015 02:35:07 PM txt,21,31,left,left,1,2.171
NA,Trial,Friday 15th of May 2015 02:35:07 PM txt,21,32,left,left,1,1.439
NA,Trial,Friday 15th of May 2015 02:35:07 PM txt,21,33,right,left,0,-1.159
NA,Trial,Friday 15th of May 2015 02:35:07 PM txt,21,34,right,right,1,0.699
NA,Trial,Friday 15th of May 2015 02:35:07 PM txt,21,35,right,right,1,1.408
NA,Trial,Friday 15th of May 2015 02:35:07 PM txt,21,36,left,left,1,0.815
NA,Trial,Friday 15th of May 2015 02:35:07 PM txt,21,37,left,left,1,1.647
NA,Trial,Friday 15th of May 2015 02:35:07 PM txt,21,38,right,right,1,0.951
NA,Trial,Friday 15th of May 2015 02:35:07 PM txt,21,39,left,left,1,0.855
NA,Trial,Friday 15th of May 2015 02:35:07 PM txt,21,40,right,left,0,-1.127
NA,Trial,Friday 15th of May 2015 02:35:07 PM txt,22,1,left,left,1,0.723
NA,Trial,Friday 15th of May 2015 02:35:07 PM txt,22,2,right,right,1,0.575
NA,Trial,Friday 15th of May 2015 02:35:07 PM txt,22,3,left,left,1,0.951
NA,Trial,Friday 15th of May 2015 02:35:07 PM txt,22,4,right,right,1,1.079
NA,Trial,Friday 15th of May 2015 02:35:07 PM txt,22,5,right,right,1,1.046
NA,Trial,Friday 15th of May 2015 02:35:07 PM txt,22,6,left,left,1,0.534
NA,Trial,Friday 15th of May 2015 02:35:07 PM txt,22,7,right,right,1,0.766
NA,Trial,Friday 15th of May 2015 02:35:07 PM txt,22,8,left,left,1,0.806
NA,Trial,Friday 15th of May 2015 02:35:07 PM txt,22,9,left,left,1,1.103
NA,Trial,Friday 15th of May 2015 02:35:07 PM txt,22,10,right,right,1,0.815
NA,Trial,Friday 15th of May 2015 02:35:07 PM txt,22,11,right,right,1,0.855
NA,Trial,Friday 15th of May 2015 02:35:07 PM txt,22,12,right,left,0,-0.663
NA,Trial,Friday 15th of May 2015 02:35:07 PM txt,22,13,left,left,1,0.995
NA,Trial,Friday 15th of May 2015 02:35:07 PM txt,22,14,right,right,1,0.583
NA,Trial,Friday 15th of May 2015 02:35:07 PM txt,22,15,right,left,0,-0.639
NA,Trial,Friday 15th of May 2015 02:35:07 PM txt,22,16,left,right,0,-0.947
NA,Trial,Friday 15th of May 2015 02:35:07 PM txt,22,17,left,left,1,0.683
NA,Trial,Friday 15th of May 2015 02:35:07 PM txt,22,18,right,right,1,1.135
NA,Trial,Friday 15th of May 2015 02:35:07 PM txt,22,19,left,left,1,0.775
NA,Trial,Friday 15th of May 2015 02:35:07 PM txt,22,20,left,right,0,-0.744
NA,Trial,Friday 15th of May 2015 02:35:07 PM txt,22,21,left,left,1,1.26
NA,Trial,Friday 15th of May 2015 02:35:07 PM txt,22,22,right,right,1,1.519
NA,Trial,Friday 15th of May 2015 02:35:07 PM txt,22,23,left,left,1,0.751
NA,Trial,Friday 15th of May 2015 02:35:07 PM txt,22,24,left,left,1,0.807
NA,Trial,Friday 15th of May 2015 02:35:07 PM txt,22,25,left,left,1,1.047
NA,Trial,Friday 15th of May 2015 02:35:07 PM txt,22,26,right,right,1,1.759
NA,Trial,Friday 15th of May 2015 02:35:07 PM txt,22,27,right,left,0,-1.143
NA,Trial,Friday 15th of May 2015 02:35:07 PM txt,22,28,left,left,1,0.611
NA,Trial,Friday 15th of May 2015 02:35:07 PM txt,22,29,right,right,1,0.614
NA,Trial,Friday 15th of May 2015 02:35:07 PM txt,22,30,left,left,1,0.815
NA,Trial,Friday 15th of May 2015 02:35:07 PM txt,22,31,left,left,1,0.702
NA,Trial,Friday 15th of May 2015 02:35:07 PM txt,22,32,right,right,1,0.671
NA,Trial,Friday 15th of May 2015 02:35:07 PM txt,22,33,right,right,1,1.503
NA,Trial,Friday 15th of May 2015 02:35:07 PM txt,22,34,right,right,1,1.17
NA,Trial,Friday 15th of May 2015 02:35:07 PM txt,22,35,left,right,0,-0.727
NA,Trial,Friday 15th of May 2015 02:35:07 PM txt,22,36,left,right,0,-2.475
NA,Trial,Friday 15th of May 2015 02:35:07 PM txt,22,37,right,right,1,1.01
NA,Trial,Friday 15th of May 2015 02:35:07 PM txt,22,38,left,left,1,0.654
NA,Trial,Friday 15th of May 2015 02:35:07 PM txt,22,39,right,right,1,0.63
NA,Trial,Friday 15th of May 2015 02:35:07 PM txt,22,40,right,right,1,1.359
NA,Trial,Friday 15th of May 2015 02:35:07 PM txt,23,1,right,left,0,-1.371
NA,Trial,Friday 15th of May 2015 02:35:07 PM txt,23,2,right,right,1,0.523
NA,Trial,Friday 15th of May 2015 02:35:07 PM txt,23,3,right,left,0,-0.767
NA,Trial,Friday 15th of May 2015 02:35:07 PM txt,23,4,left,left,1,0.595
NA,Trial,Friday 15th of May 2015 02:35:07 PM txt,23,5,left,left,1,0.671
NA,Trial,Friday 15th of May 2015 02:35:07 PM txt,23,6,left,right,0,-0.615
NA,Trial,Friday 15th of May 2015 02:35:07 PM txt,23,7,left,left,1,0.675
NA,Trial,Friday 15th of May 2015 02:35:07 PM txt,23,8,left,left,1,0.664
NA,Trial,Friday 15th of May 2015 02:35:07 PM txt,23,9,right,right,1,0.607
NA,Trial,Friday 15th of May 2015 02:35:07 PM txt,23,10,left,left,1,0.719
NA,Trial,Friday 15th of May 2015 02:35:07 PM txt,23,11,left,right,0,-0.72
NA,Trial,Friday 15th of May 2015 02:35:07 PM txt,23,12,left,left,1,0.516
NA,Trial,Friday 15th of May 2015 02:35:07 PM txt,23,13,left,left,1,0.815
NA,Trial,Friday 15th of May 2015 02:35:07 PM txt,23,14,right,right,1,1.127
NA,Trial,Friday 15th of May 2015 02:35:07 PM txt,23,15,right,left,0,-0.863
NA,Trial,Friday 15th of May 2015 02:35:07 PM txt,23,16,left,right,0,-0.683
NA,Trial,Friday 15th of May 2015 02:35:07 PM txt,23,17,right,right,1,0.715
NA,Trial,Friday 15th of May 2015 02:35:07 PM txt,23,18,left,left,1,0.695
NA,Trial,Friday 15th of May 2015 02:35:07 PM txt,23,19,right,right,1,0.823
NA,Trial,Friday 15th of May 2015 02:35:07 PM txt,23,20,left,left,1,0.638
NA,Trial,Friday 15th of May 2015 02:35:07 PM txt,23,21,left,right,0,-0.703
NA,Trial,Friday 15th of May 2015 02:35:07 PM txt,23,22,left,left,1,0.682
NA,Trial,Friday 15th of May 2015 02:35:07 PM txt,23,23,left,left,1,0.831
NA,Trial,Friday 15th of May 2015 02:35:07 PM txt,23,24,left,left,1,0.832
NA,Trial,Friday 15th of May 2015 02:35:07 PM txt,23,25,right,left,0,-0.864
NA,Trial,Friday 15th of May 2015 02:35:07 PM txt,23,26,right,left,0,-0.779
NA,Trial,Friday 15th of May 2015 02:35:07 PM txt,23,27,right,left,0,-0.707
NA,Trial,Friday 15th of May 2015 02:35:07 PM txt,23,28,left,left,1,1.139
NA,Trial,Friday 15th of May 2015 02:35:07 PM txt,23,29,right,right,1,1.103
NA,Trial,Friday 15th of May 2015 02:35:07 PM txt,23,30,right,right,1,1.311
NA,Trial,Friday 15th of May 2015 02:35:07 PM txt,23,31,right,right,1,0.806
NA,Trial,Friday 15th of May 2015 02:35:07 PM txt,23,32,right,left,0,-0.71
NA,Trial,Friday 15th of May 2015 02:35:07 PM txt,23,33,right,left,0,-1.986
NA,Trial,Friday 15th of May 2015 02:35:07 PM txt,23,34,left,left,1,1.499
NA,Trial,Friday 15th of May 2015 02:35:07 PM txt,23,35,right,right,1,0.647
NA,Trial,Friday 15th of May 2015 02:35:07 PM txt,23,36,right,left,0,-1.191
NA,Trial,Friday 15th of May 2015 02:35:07 PM txt,23,37,left,left,1,0.603
NA,Trial,Friday 15th of May 2015 02:35:07 PM txt,23,38,right,left,0,-1.159
NA,Trial,Friday 15th of May 2015 02:35:07 PM txt,23,39,left,left,1,1.947
NA,Trial,Friday 15th of May 2015 02:35:07 PM txt,23,40,right,right,1,0.743
NA,Trial,Friday 15th of May 2015 02:35:07 PM txt,24,1,left,left,1,0.668
NA,Trial,Friday 15th of May 2015 02:35:07 PM txt,24,2,left,left,1,1.344
NA,Trial,Friday 15th of May 2015 02:35:07 PM txt,24,3,left,right,0,-0.592
NA,Trial,Friday 15th of May 2015 02:35:07 PM txt,24,4,left,left,1,0.643
NA,Trial,Friday 15th of May 2015 02:35:07 PM txt,24,5,right,right,1,0.791
NA,Trial,Friday 15th of May 2015 02:35:07 PM txt,24,6,right,left,0,-0.583
NA,Trial,Friday 15th of May 2015 02:35:07 PM txt,24,7,right,right,1,0.667
NA,Trial,Friday 15th of May 2015 02:35:07 PM txt,24,8,left,left,1,0.88
NA,Trial,Friday 15th of May 2015 02:35:07 PM txt,24,9,right,right,1,0.959
NA,Trial,Friday 15th of May 2015 02:35:07 PM txt,24,10,right,left,0,-1.199
NA,Trial,Friday 15th of May 2015 02:35:07 PM txt,24,11,left,left,1,0.843
NA,Trial,Friday 15th of May 2015 02:35:07 PM txt,24,12,right,right,1,0.798
NA,Trial,Friday 15th of May 2015 02:35:07 PM txt,24,13,right,left,0,-1.063
NA,Trial,Friday 15th of May 2015 02:35:07 PM txt,24,14,left,left,1,1.171
NA,Trial,Friday 15th of May 2015 02:35:07 PM txt,24,15,left,left,1,0.993
NA,Trial,Friday 15th of May 2015 02:35:07 PM txt,24,16,left,left,1,1.318
NA,Trial,Friday 15th of May 2015 02:35:07 PM txt,24,17,left,left,1,1.623
NA,Trial,Friday 15th of May 2015 02:35:07 PM txt,24,18,right,right,1,1.343
NA,Trial,Friday 15th of May 2015 02:35:07 PM txt,24,19,right,right,1,1.257
NA,Trial,Friday 15th of May 2015 02:35:07 PM txt,24,20,right,right,1,1.95
NA,Trial,Friday 15th of May 2015 02:35:07 PM txt,24,21,right,right,1,1.558
NA,Trial,Friday 15th of May 2015 02:35:07 PM txt,24,22,right,right,1,1.662
NA,Trial,Friday 15th of May 2015 02:35:07 PM txt,24,23,left,left,1,0.647
NA,Trial,Friday 15th of May 2015 02:35:07 PM txt,24,24,left,right,0,-0.991
NA,Trial,Friday 15th of May 2015 02:35:07 PM txt,24,25,right,left,0,-0.611
NA,Trial,Friday 15th of May 2015 02:35:07 PM txt,24,26,right,right,1,0.811
NA,Trial,Friday 15th of May 2015 02:35:07 PM txt,24,27,right,right,1,1.423
NA,Trial,Friday 15th of May 2015 02:35:07 PM txt,24,28,right,right,1,1.743
NA,Trial,Friday 15th of May 2015 02:35:07 PM txt,24,29,right,right,1,0.991
NA,Trial,Friday 15th of May 2015 02:35:07 PM txt,24,30,right,left,0,-1.103
NA,Trial,Friday 15th of May 2015 02:35:07 PM txt,24,31,left,left,1,0.987
NA,Trial,Friday 15th of May 2015 02:35:07 PM txt,24,32,right,right,1,1.088
NA,Trial,Friday 15th of May 2015 02:35:07 PM txt,24,33,right,left,0,-0.872
NA,Trial,Friday 15th of May 2015 02:35:07 PM txt,24,34,left,left,1,0.723
NA,Trial,Friday 15th of May 2015 02:35:07 PM txt,24,35,left,left,1,0.999
NA,Trial,Friday 15th of May 2015 02:35:07 PM txt,24,36,left,left,1,1.215
NA,Trial,Friday 15th of May 2015 02:35:07 PM txt,24,37,left,left,1,1.151
NA,Trial,Friday 15th of May 2015 02:35:07 PM txt,24,38,left,left,1,1.391
NA,Trial,Friday 15th of May 2015 02:35:07 PM txt,24,39,left,left,1,1.182
NA,Trial,Friday 15th of May 2015 02:35:07 PM txt,24,40,left,left,1,1.207
NA,Time,Tuesday 19th of May 2015 11:33:14 AM txt,1,1,left,left,1,1.456
NA,Time,Tuesday 19th of May 2015 11:33:14 AM txt,1,2,left,left,1,0.944
NA,Time,Tuesday 19th of May 2015 11:33:14 AM txt,1,3,left,left,1,0.842
NA,Time,Tuesday 19th of May 2015 11:33:14 AM txt,1,4,right,right,1,1.042
NA,Time,Tuesday 19th of May 2015 11:33:14 AM txt,1,5,right,right,1,1.599
NA,Time,Tuesday 19th of May 2015 11:33:14 AM txt,1,6,left,left,1,1.146
NA,Time,Tuesday 19th of May 2015 11:33:14 AM txt,1,7,left,left,1,1.474
NA,Time,Tuesday 19th of May 2015 11:33:14 AM txt,1,8,left,right,0,-1.298
NA,Time,Tuesday 19th of May 2015 11:33:14 AM txt,1,9,left,left,1,1.89
NA,Time,Tuesday 19th of May 2015 11:33:14 AM txt,1,10,left,left,1,1.581
NA,Time,Tuesday 19th of May 2015 11:33:14 AM txt,1,11,left,left,1,2.376
NA,Time,Tuesday 19th of May 2015 11:33:14 AM txt,1,12,right,right,1,1.879
NA,Time,Tuesday 19th of May 2015 11:33:14 AM txt,1,13,right,right,1,2.697
NA,Time,Tuesday 19th of May 2015 11:33:14 AM txt,1,14,right,right,1,2.345
NA,Time,Tuesday 19th of May 2015 11:33:14 AM txt,1,15,right,right,1,1.694
NA,Time,Tuesday 19th of May 2015 11:33:14 AM txt,1,16,left,left,1,1.173
NA,Time,Tuesday 19th of May 2015 11:33:14 AM txt,1,17,right,right,1,1.572
NA,Time,Tuesday 19th of May 2015 11:33:14 AM txt,1,18,left,left,1,1.27
NA,Time,Tuesday 19th of May 2015 11:33:14 AM txt,1,19,right,right,1,1.769
NA,Time,Tuesday 19th of May 2015 11:33:14 AM txt,1,20,right,right,1,1.513
NA,Time,Tuesday 19th of May 2015 11:33:14 AM txt,1,21,left,left,1,1.33
NA,Time,Tuesday 19th of May 2015 11:33:14 AM txt,1,22,left,left,1,1.686
NA,Time,Tuesday 19th of May 2015 11:33:14 AM txt,1,23,left,left,1,1.252
NA,Time,Tuesday 19th of May 2015 11:33:14 AM txt,1,24,left,right,0,-1.422
NA,Time,Tuesday 19th of May 2015 11:33:14 AM txt,1,25,left,right,0,-2.257
NA,Time,Tuesday 19th of May 2015 11:33:14 AM txt,1,26,left,left,1,1.522
NA,Time,Tuesday 19th of May 2015 11:33:14 AM txt,1,27,right,left,0,-3.203
NA,Time,Tuesday 19th of May 2015 11:33:14 AM txt,1,28,left,left,1,1.261
NA,Time,Tuesday 19th of May 2015 11:33:14 AM txt,1,29,right,left,0,-1.719
NA,Time,Tuesday 19th of May 2015 11:33:14 AM txt,2,1,left,left,1,1.281
NA,Time,Tuesday 19th of May 2015 11:33:14 AM txt,2,2,left,left,1,1.339
NA,Time,Tuesday 19th of May 2015 11:33:14 AM txt,2,3,right,right,1,1.432
NA,Time,Tuesday 19th of May 2015 11:33:14 AM txt,2,4,right,right,1,1.423
NA,Time,Tuesday 19th of May 2015 11:33:14 AM txt,2,5,right,right,1,1.142
NA,Time,Tuesday 19th of May 2015 11:33:14 AM txt,2,6,left,left,1,0.973
NA,Time,Tuesday 19th of May 2015 11:33:14 AM txt,2,7,left,left,1,1.232
NA,Time,Tuesday 19th of May 2015 11:33:14 AM txt,2,8,right,left,0,-2.058
NA,Time,Tuesday 19th of May 2015 11:33:14 AM txt,2,9,right,right,1,1.15
NA,Time,Tuesday 19th of May 2015 11:33:14 AM txt,2,10,right,left,0,-1.709
NA,Time,Tuesday 19th of May 2015 11:33:14 AM txt,2,11,left,left,1,0.92
NA,Time,Tuesday 19th of May 2015 11:33:14 AM txt,2,12,left,left,1,0.834
NA,Time,Tuesday 19th of May 2015 11:33:14 AM txt,2,13,left,left,1,0.642
NA,Time,Tuesday 19th of May 2015 11:33:14 AM txt,2,14,right,right,1,1.3
NA,Time,Tuesday 19th of May 2015 11:33:14 AM txt,2,15,left,right,0,-1.544
NA,Time,Tuesday 19th of May 2015 11:33:14 AM txt,2,16,right,right,1,2.046
NA,Time,Tuesday 19th of May 2015 11:33:14 AM txt,2,17,left,left,1,1.029
NA,Time,Tuesday 19th of May 2015 11:33:14 AM txt,2,18,right,left,0,-2.793
NA,Time,Tuesday 19th of May 2015 11:33:14 AM txt,2,19,right,left,0,-1.6
NA,Time,Tuesday 19th of May 2015 11:33:14 AM txt,2,20,left,left,1,1.16
NA,Time,Tuesday 19th of May 2015 11:33:14 AM txt,2,21,left,left,1,0.968
NA,Time,Tuesday 19th of May 2015 11:33:14 AM txt,2,22,left,left,1,1.212
NA,Time,Tuesday 19th of May 2015 11:33:14 AM txt,2,23,left,left,1,1.06
NA,Time,Tuesday 19th of May 2015 11:33:14 AM txt,2,24,right,right,1,1.137
NA,Time,Tuesday 19th of May 2015 11:33:14 AM txt,2,25,left,right,0,-1.799
NA,Time,Tuesday 19th of May 2015 11:33:14 AM txt,2,26,left,left,1,1.421
NA,Time,Tuesday 19th of May 2015 11:33:14 AM txt,2,27,right,right,1,1.596
NA,Time,Tuesday 19th of May 2015 11:33:14 AM txt,2,28,left,left,1,1.335
NA,Time,Tuesday 19th of May 2015 11:33:14 AM txt,2,29,left,left,1,1.307
NA,Time,Tuesday 19th of May 2015 11:33:14 AM txt,2,30,left,left,1,1.191
NA,Time,Tuesday 19th of May 2015 11:33:14 AM txt,2,31,left,left,1,1.648
NA,Time,Tuesday 19th of May 2015 11:33:14 AM txt,2,32,left,left,1,1.26
NA,Time,Tuesday 19th of May 2015 11:33:14 AM txt,2,33,left,left,1,1.383
NA,Time,Tuesday 19th of May 2015 11:33:14 AM txt,3,1,right,right,1,1.726
NA,Time,Tuesday 19th of May 2015 11:33:14 AM txt,3,2,left,left,1,1.061
NA,Time,Tuesday 19th of May 2015 11:33:14 AM txt,3,3,left,left,1,1.138
NA,Time,Tuesday 19th of May 2015 11:33:14 AM txt,3,4,right,right,1,1.274
NA,Time,Tuesday 19th of May 2015 11:33:14 AM txt,3,5,left,left,1,1.061
NA,Time,Tuesday 19th of May 2015 11:33:14 AM txt,3,6,right,right,1,1.098
NA,Time,Tuesday 19th of May 2015 11:33:14 AM txt,3,7,right,right,1,1.192
NA,Time,Tuesday 19th of May 2015 11:33:14 AM txt,3,8,left,left,1,1.872
NA,Time,Tuesday 19th of May 2015 11:33:14 AM txt,3,9,left,left,1,1.275
NA,Time,Tuesday 19th of May 2015 11:33:14 AM txt,3,10,left,left,1,1.046
NA,Time,Tuesday 19th of May 2015 11:33:14 AM txt,3,11,left,left,1,1.003
NA,Time,Tuesday 19th of May 2015 11:33:14 AM txt,3,12,left,left,1,0.951
NA,Time,Tuesday 19th of May 2015 11:33:14 AM txt,3,13,left,left,1,0.849
NA,Time,Tuesday 19th of May 2015 11:33:14 AM txt,3,14,right,right,1,1.241
NA,Time,Tuesday 19th of May 2015 11:33:14 AM txt,3,15,right,right,1,1.323
NA,Time,Tuesday 19th of May 2015 11:33:14 AM txt,3,16,left,left,1,1.071
NA,Time,Tuesday 19th of May 2015 11:33:14 AM txt,3,17,left,right,0,-1.197
NA,Time,Tuesday 19th of May 2015 11:33:14 AM txt,3,18,left,left,1,0.762
NA,Time,Tuesday 19th of May 2015 11:33:14 AM txt,3,19,right,left,0,-1.064
NA,Time,Tuesday 19th of May 2015 11:33:14 AM txt,3,20,left,left,1,0.803
NA,Time,Tuesday 19th of May 2015 11:33:14 AM txt,3,21,right,left,0,-0.857
NA,Time,Tuesday 19th of May 2015 11:33:14 AM txt,3,22,left,left,1,1.006
NA,Time,Tuesday 19th of May 2015 11:33:14 AM txt,3,23,left,left,1,1.354
NA,Time,Tuesday 19th of May 2015 11:33:14 AM txt,3,24,right,left,0,-2.047
NA,Time,Tuesday 19th of May 2015 11:33:14 AM txt,3,25,right,left,0,-1.707
NA,Time,Tuesday 19th of May 2015 11:33:14 AM txt,3,26,right,left,0,-2.854
NA,Time,Tuesday 19th of May 2015 11:33:14 AM txt,3,27,left,left,1,0.87
NA,Time,Tuesday 19th of May 2015 11:33:14 AM txt,3,28,right,right,1,1.782
NA,Time,Tuesday 19th of May 2015 11:33:14 AM txt,3,29,left,left,1,0.87
NA,Time,Tuesday 19th of May 2015 11:33:14 AM txt,3,30,left,left,1,1.029
NA,Time,Tuesday 19th of May 2015 11:33:14 AM txt,3,31,left,left,1,0.706
NA,Time,Tuesday 19th of May 2015 11:33:14 AM txt,3,32,right,right,1,1.022
NA,Time,Tuesday 19th of May 2015 11:33:14 AM txt,3,33,left,left,1,0.579
NA,Time,Tuesday 19th of May 2015 11:33:14 AM txt,3,34,left,left,1,0.684
NA,Time,Tuesday 19th of May 2015 11:33:14 AM txt,3,35,left,left,1,0.8
NA,Time,Tuesday 19th of May 2015 11:33:14 AM txt,3,36,left,left,1,0.79
NA,Time,Tuesday 19th of May 2015 11:33:14 AM txt,3,37,right,left,0,-2.421
NA,Time,Tuesday 19th of May 2015 11:33:14 AM txt,4,1,right,right,1,1.767
NA,Time,Tuesday 19th of May 2015 11:33:14 AM txt,4,2,left,left,1,1.103
NA,Time,Tuesday 19th of May 2015 11:33:14 AM txt,4,3,right,right,1,2.461
NA,Time,Tuesday 19th of May 2015 11:33:14 AM txt,4,4,right,right,1,1.151
NA,Time,Tuesday 19th of May 2015 11:33:14 AM txt,4,5,right,left,0,-2.854
NA,Time,Tuesday 19th of May 2015 11:33:14 AM txt,4,6,left,left,1,1.03
NA,Time,Tuesday 19th of May 2015 11:33:14 AM txt,4,7,right,right,1,1.364
NA,Time,Tuesday 19th of May 2015 11:33:14 AM txt,4,8,left,left,1,1.025
NA,Time,Tuesday 19th of May 2015 11:33:14 AM txt,4,9,left,left,1,1.389
NA,Time,Tuesday 19th of May 2015 11:33:14 AM txt,4,10,right,right,1,1.803
NA,Time,Tuesday 19th of May 2015 11:33:14 AM txt,4,11,right,right,1,1.052
NA,Time,Tuesday 19th of May 2015 11:33:14 AM txt,4,12,right,right,1,1.777
NA,Time,Tuesday 19th of May 2015 11:33:14 AM txt,4,13,left,left,1,0.977
NA,Time,Tuesday 19th of May 2015 11:33:14 AM txt,4,14,right,right,1,1.436
NA,Time,Tuesday 19th of May 2015 11:33:14 AM txt,4,15,right,right,1,1.194
NA,Time,Tuesday 19th of May 2015 11:33:14 AM txt,4,16,right,right,1,1.243
NA,Time,Tuesday 19th of May 2015 11:33:14 AM txt,4,17,left,left,1,1.045
NA,Time,Tuesday 19th of May 2015 11:33:14 AM txt,4,18,right,right,1,2.714
NA,Time,Tuesday 19th of May 2015 11:33:14 AM txt,4,19,left,left,1,1.13
NA,Time,Tuesday 19th of May 2015 11:33:14 AM txt,4,20,right,right,1,0.849
NA,Time,Tuesday 19th of May 2015 11:33:14 AM txt,4,21,right,right,1,1.177
NA,Time,Tuesday 19th of May 2015 11:33:14 AM txt,4,22,left,left,1,0.969
NA,Time,Tuesday 19th of May 2015 11:33:14 AM txt,4,23,right,right,1,1.069
NA,Time,Tuesday 19th of May 2015 11:33:14 AM txt,4,24,right,right,1,0.986
NA,Time,Tuesday 19th of May 2015 11:33:14 AM txt,4,25,left,right,0,-2.886
NA,Time,Tuesday 19th of May 2015 11:33:14 AM txt,4,26,right,right,1,2.543
NA,Time,Tuesday 19th of May 2015 11:33:14 AM txt,4,27,right,right,1,1.603
NA,Time,Tuesday 19th of May 2015 11:33:14 AM txt,4,28,right,right,1,1.03
NA,Time,Tuesday 19th of May 2015 11:33:14 AM txt,4,29,right,left,0,-1.051
NA,Time,Tuesday 19th of May 2015 11:33:14 AM txt,4,30,left,left,1,0.821
NA,Time,Tuesday 19th of May 2015 11:33:14 AM txt,4,31,right,right,1,2.18
NA,Time,Tuesday 19th of May 2015 11:33:14 AM txt,4,32,left,right,0,-2.718
NA,Time,Tuesday 19th of May 2015 11:33:14 AM txt,5,1,right,right,1,1.365
NA,Time,Tuesday 19th of May 2015 11:33:14 AM txt,5,2,left,left,1,0.986
NA,Time,Tuesday 19th of May 2015 11:33:14 AM txt,5,3,left,left,1,1.245
NA,Time,Tuesday 19th of May 2015 11:33:14 AM txt,5,4,right,right,1,1.071
NA,Time,Tuesday 19th of May 2015 11:33:14 AM txt,5,5,left,left,1,1.069
NA,Time,Tuesday 19th of May 2015 11:33:14 AM txt,5,6,right,right,1,0.962
NA,Time,Tuesday 19th of May 2015 11:33:14 AM txt,5,7,right,right,1,0.885
NA,Time,Tuesday 19th of May 2015 11:33:14 AM txt,5,8,left,left,1,1.477
NA,Time,Tuesday 19th of May 2015 11:33:14 AM txt,5,9,left,left,1,1.069
NA,Time,Tuesday 19th of May 2015 11:33:14 AM txt,5,10,left,left,1,1.387
NA,Time,Tuesday 19th of May 2015 11:33:14 AM txt,5,11,right,right,1,1.905
NA,Time,Tuesday 19th of May 2015 11:33:14 AM txt,5,12,left,left,1,1.004
NA,Time,Tuesday 19th of May 2015 11:33:14 AM txt,5,13,right,right,1,1.616
NA,Time,Tuesday 19th of May 2015 11:33:14 AM txt,5,14,right,right,1,1.211
NA,Time,Tuesday 19th of May 2015 11:33:14 AM txt,5,15,right,right,1,1.828
NA,Time,Tuesday 19th of May 2015 11:33:14 AM txt,5,16,left,left,1,1.102
NA,Time,Tuesday 19th of May 2015 11:33:14 AM txt,5,17,right,right,1,1.012
NA,Time,Tuesday 19th of May 2015 11:33:14 AM txt,5,18,right,right,1,0.816
NA,Time,Tuesday 19th of May 2015 11:33:14 AM txt,5,19,right,left,0,-2.847
NA,Time,Tuesday 19th of May 2015 11:33:14 AM txt,5,20,right,right,1,1.303
NA,Time,Tuesday 19th of May 2015 11:33:14 AM txt,5,21,right,right,1,1.419
NA,Time,Tuesday 19th of May 2015 11:33:14 AM txt,5,22,left,left,1,1.425
NA,Time,Tuesday 19th of May 2015 11:33:14 AM txt,5,23,left,left,1,1.248
NA,Time,Tuesday 19th of May 2015 11:33:14 AM txt,5,24,left,left,1,2.45
NA,Time,Tuesday 19th of May 2015 11:33:14 AM txt,5,25,right,right,1,1.378
NA,Time,Tuesday 19th of May 2015 11:33:14 AM txt,5,26,right,right,1,1.44
NA,Time,Tuesday 19th of May 2015 11:33:14 AM txt,5,27,left,left,1,1.215
NA,Time,Tuesday 19th of May 2015 11:33:14 AM txt,5,28,left,left,1,1.272
NA,Time,Tuesday 19th of May 2015 11:33:14 AM txt,5,29,left,left,1,1.403
NA,Time,Tuesday 19th of May 2015 11:33:14 AM txt,5,30,right,right,1,1.65
NA,Time,Tuesday 19th of May 2015 11:33:14 AM txt,5,31,right,right,1,1.925
NA,Time,Tuesday 19th of May 2015 11:33:14 AM txt,5,32,left,left,1,1.521
NA,Time,Tuesday 19th of May 2015 11:33:14 AM txt,5,33,left,left,1,1.546
NA,Time,Tuesday 19th of May 2015 11:33:14 AM txt,5,34,left,left,1,1.084
NA,Time,Tuesday 19th of May 2015 11:33:14 AM txt,6,1,right,right,1,2.531
NA,Time,Tuesday 19th of May 2015 11:33:14 AM txt,6,2,right,left,0,-2.142
NA,Time,Tuesday 19th of May 2015 11:33:14 AM txt,6,3,left,left,1,1.036
NA,Time,Tuesday 19th of May 2015 11:33:14 AM txt,6,4,left,left,1,1.473
NA,Time,Tuesday 19th of May 2015 11:33:14 AM txt,6,5,left,left,1,1.321
NA,Time,Tuesday 19th of May 2015 11:33:14 AM txt,6,6,right,right,1,1.525
NA,Time,Tuesday 19th of May 2015 11:33:14 AM txt,6,7,left,left,1,0.998
NA,Time,Tuesday 19th of May 2015 11:33:14 AM txt,6,8,left,right,0,-1.602
NA,Time,Tuesday 19th of May 2015 11:33:14 AM txt,6,9,right,right,1,1.322
NA,Time,Tuesday 19th of May 2015 11:33:14 AM txt,6,10,right,right,1,1.662
NA,Time,Tuesday 19th of May 2015 11:33:14 AM txt,6,11,right,right,1,1.339
NA,Time,Tuesday 19th of May 2015 11:33:14 AM txt,6,12,right,right,1,1.047
NA,Time,Tuesday 19th of May 2015 11:33:14 AM txt,6,13,right,right,1,1.004
NA,Time,Tuesday 19th of May 2015 11:33:14 AM txt,6,14,left,left,1,1
NA,Time,Tuesday 19th of May 2015 11:33:14 AM txt,6,15,left,right,0,-1.076
NA,Time,Tuesday 19th of May 2015 11:33:14 AM txt,6,16,left,right,0,-1.143
NA,Time,Tuesday 19th of May 2015 11:33:14 AM txt,6,17,right,right,1,2.323
NA,Time,Tuesday 19th of May 2015 11:33:14 AM txt,6,18,right,right,1,2.641
NA,Time,Tuesday 19th of May 2015 11:33:14 AM txt,6,19,left,left,1,1.247
NA,Time,Tuesday 19th of May 2015 11:33:14 AM txt,6,20,right,right,1,1.097
NA,Time,Tuesday 19th of May 2015 11:33:14 AM txt,6,21,left,left,1,1.024
NA,Time,Tuesday 19th of May 2015 11:33:14 AM txt,6,22,right,right,1,1.372
NA,Time,Tuesday 19th of May 2015 11:33:14 AM txt,6,23,left,left,1,0.889
NA,Time,Tuesday 19th of May 2015 11:33:14 AM txt,6,24,right,right,1,1.041
NA,Time,Tuesday 19th of May 2015 11:33:14 AM txt,6,25,left,left,1,1.198
NA,Time,Tuesday 19th of May 2015 11:33:14 AM txt,6,26,left,left,1,1.895
NA,Time,Tuesday 19th of May 2015 11:33:14 AM txt,6,27,right,right,1,1.258
NA,Time,Tuesday 19th of May 2015 11:33:14 AM txt,6,28,right,right,1,1.22
NA,Time,Tuesday 19th of May 2015 11:33:14 AM txt,6,29,left,left,1,1.062
NA,Time,Tuesday 19th of May 2015 11:33:14 AM txt,6,30,right,right,1,1.139
NA,Time,Tuesday 19th of May 2015 11:33:14 AM txt,6,31,right,right,1,2.115
NA,Time,Tuesday 19th of May 2015 11:33:14 AM txt,6,32,right,right,1,1.331
NA,Time,Tuesday 19th of May 2015 11:33:14 AM txt,6,33,right,right,1,1.448
NA,Time,Tuesday 19th of May 2015 11:33:14 AM txt,7,1,left,left,1,1.222
NA,Time,Tuesday 19th of May 2015 11:33:14 AM txt,7,2,right,right,1,1.28
NA,Time,Tuesday 19th of May 2015 11:33:14 AM txt,7,3,right,right,1,1.395
NA,Time,Tuesday 19th of May 2015 11:33:14 AM txt,7,4,left,left,1,1.249
NA,Time,Tuesday 19th of May 2015 11:33:14 AM txt,7,5,right,right,1,1.188
NA,Time,Tuesday 19th of May 2015 11:33:14 AM txt,7,6,left,left,1,1.508
NA,Time,Tuesday 19th of May 2015 11:33:14 AM txt,7,7,right,right,1,1.221
NA,Time,Tuesday 19th of May 2015 11:33:14 AM txt,7,8,right,right,1,2.294
NA,Time,Tuesday 19th of May 2015 11:33:14 AM txt,7,9,left,left,1,1.084
NA,Time,Tuesday 19th of May 2015 11:33:14 AM txt,7,10,right,right,1,1.49
NA,Time,Tuesday 19th of May 2015 11:33:14 AM txt,7,11,left,right,0,-1.578
NA,Time,Tuesday 19th of May 2015 11:33:14 AM txt,7,12,left,left,1,2.01
NA,Time,Tuesday 19th of May 2015 11:33:14 AM txt,7,13,left,left,1,1.68
NA,Time,Tuesday 19th of May 2015 11:33:14 AM txt,7,14,right,right,1,1.653
NA,Time,Tuesday 19th of May 2015 11:33:14 AM txt,7,15,left,left,1,1.433
NA,Time,Tuesday 19th of May 2015 11:33:14 AM txt,7,16,left,left,1,1.408
NA,Time,Tuesday 19th of May 2015 11:33:14 AM txt,7,17,right,right,1,1.238
NA,Time,Tuesday 19th of May 2015 11:33:14 AM txt,7,18,right,right,1,1.544
NA,Time,Tuesday 19th of May 2015 11:33:14 AM txt,7,19,right,right,1,2.081
NA,Time,Tuesday 19th of May 2015 11:33:14 AM txt,7,20,left,left,1,1.657
NA,Time,Tuesday 19th of May 2015 11:33:14 AM txt,7,21,right,right,1,2.445
NA,Time,Tuesday 19th of May 2015 11:33:14 AM txt,7,22,left,left,1,1.069
NA,Time,Tuesday 19th of May 2015 11:33:14 AM txt,7,23,right,left,0,-1.922
NA,Time,Tuesday 19th of May 2015 11:33:14 AM txt,7,24,left,left,1,1.043
NA,Time,Tuesday 19th of May 2015 11:33:14 AM txt,7,25,right,right,1,1.376
NA,Time,Tuesday 19th of May 2015 11:33:14 AM txt,7,26,right,right,1,1.677
NA,Time,Tuesday 19th of May 2015 11:33:14 AM txt,7,27,right,right,1,1.427
NA,Time,Tuesday 19th of May 2015 11:33:14 AM txt,7,28,left,left,1,1.369
NA,Time,Tuesday 19th of May 2015 11:33:14 AM txt,7,29,right,right,1,1.414
NA,Time,Tuesday 19th of May 2015 11:33:14 AM txt,7,30,right,right,1,1.348
NA,Time,Tuesday 19th of May 2015 11:33:14 AM txt,7,31,right,right,1,1.273
NA,Time,Tuesday 19th of May 2015 11:33:14 AM txt,7,32,left,left,1,1.22
NA,Time,Tuesday 19th of May 2015 11:33:14 AM txt,8,1,right,right,1,1.231
NA,Time,Tuesday 19th of May 2015 11:33:14 AM txt,8,2,right,right,1,1.224
NA,Time,Tuesday 19th of May 2015 11:33:14 AM txt,8,3,left,left,1,1.353
NA,Time,Tuesday 19th of May 2015 11:33:14 AM txt,8,4,left,left,1,1.35
NA,Time,Tuesday 19th of May 2015 11:33:14 AM txt,8,5,right,right,1,1.107
NA,Time,Tuesday 19th of May 2015 11:33:14 AM txt,8,6,left,left,1,1.266
NA,Time,Tuesday 19th of May 2015 11:33:14 AM txt,8,7,left,left,1,1.484
NA,Time,Tuesday 19th of May 2015 11:33:14 AM txt,8,8,right,left,0,-1.132
NA,Time,Tuesday 19th of May 2015 11:33:14 AM txt,8,9,right,left,0,-3.536
NA,Time,Tuesday 19th of May 2015 11:33:14 AM txt,8,10,right,left,0,-2.554
NA,Time,Tuesday 19th of May 2015 11:33:14 AM txt,8,11,left,left,1,1.282
NA,Time,Tuesday 19th of May 2015 11:33:14 AM txt,8,12,right,left,0,-1.341
NA,Time,Tuesday 19th of May 2015 11:33:14 AM txt,8,13,left,left,1,1.887
NA,Time,Tuesday 19th of May 2015 11:33:14 AM txt,8,14,right,left,0,-3.026
NA,Time,Tuesday 19th of May 2015 11:33:14 AM txt,8,15,left,left,1,2.263
NA,Time,Tuesday 19th of May 2015 11:33:14 AM txt,8,16,left,left,1,1.907
NA,Time,Tuesday 19th of May 2015 11:33:14 AM txt,8,17,right,right,1,1.583
NA,Time,Tuesday 19th of May 2015 11:33:14 AM txt,8,18,left,left,1,1.249
NA,Time,Tuesday 19th of May 2015 11:33:14 AM txt,8,19,right,right,1,2.02
NA,Time,Tuesday 19th of May 2015 11:33:14 AM txt,8,20,left,left,1,4.017
NA,Time,Tuesday 19th of May 2015 11:33:14 AM txt,8,21,right,left,0,-2.626
NA,Time,Tuesday 19th of May 2015 11:33:14 AM txt,8,22,left,left,1,1.437
NA,Time,Tuesday 19th of May 2015 11:33:14 AM txt,8,23,right,left,0,-1.811
NA,Time,Tuesday 19th of May 2015 11:33:14 AM txt,8,24,right,right,1,2.306
NA,Time,Tuesday 19th of May 2015 11:33:14 AM txt,8,25,left,left,1,2.615
NA,Time,Tuesday 19th of May 2015 11:33:14 AM txt,9,1,left,left,1,1.125
NA,Time,Tuesday 19th of May 2015 11:33:14 AM txt,9,2,right,right,1,1.365
NA,Time,Tuesday 19th of May 2015 11:33:14 AM txt,9,3,left,left,1,1.842
NA,Time,Tuesday 19th of May 2015 11:33:14 AM txt,9,4,right,right,1,1.483
NA,Time,Tuesday 19th of May 2015 11:33:14 AM txt,9,5,left,left,1,2.003
NA,Time,Tuesday 19th of May 2015 11:33:14 AM txt,9,6,left,left,1,1.584
NA,Time,Tuesday 19th of May 2015 11:33:14 AM txt,9,7,left,left,1,1.386
NA,Time,Tuesday 19th of May 2015 11:33:14 AM txt,9,8,right,right,1,1.544
NA,Time,Tuesday 19th of May 2015 11:33:14 AM txt,9,9,left,left,1,2.746
NA,Time,Tuesday 19th of May 2015 11:33:14 AM txt,9,10,right,right,1,1.075
NA,Time,Tuesday 19th of May 2015 11:33:14 AM txt,9,11,right,right,1,3.176
NA,Time,Tuesday 19th of May 2015 11:33:14 AM txt,9,12,left,left,1,3.46
NA,Time,Tuesday 19th of May 2015 11:33:14 AM txt,9,13,right,left,0,-2.207
NA,Time,Tuesday 19th of May 2015 11:33:14 AM txt,9,14,left,left,1,1.494
NA,Time,Tuesday 19th of May 2015 11:33:14 AM txt,9,15,left,left,1,1.959
NA,Time,Tuesday 19th of May 2015 11:33:14 AM txt,9,16,left,left,1,1.971
NA,Time,Tuesday 19th of May 2015 11:33:14 AM txt,9,17,right,right,1,1.328
NA,Time,Tuesday 19th of May 2015 11:33:14 AM txt,9,18,right,right,1,1.445
NA,Time,Tuesday 19th of May 2015 11:33:14 AM txt,9,19,right,right,1,2.835
NA,Time,Tuesday 19th of May 2015 11:33:14 AM txt,9,20,left,right,0,-2.182
NA,Time,Tuesday 19th of May 2015 11:33:14 AM txt,9,21,right,right,1,2.733
NA,Time,Tuesday 19th of May 2015 11:33:14 AM txt,9,22,right,right,1,2.541
NA,Time,Tuesday 19th of May 2015 11:33:14 AM txt,9,23,left,left,1,1.64
NA,Time,Tuesday 19th of May 2015 11:33:14 AM txt,9,24,right,right,1,1.572
NA,Time,Tuesday 19th of May 2015 11:33:14 AM txt,9,25,left,left,1,2.15
NA,Time,Tuesday 19th of May 2015 11:33:14 AM txt,9,26,right,left,0,-2.504
NA,Time,Tuesday 19th of May 2015 11:33:14 AM txt,10,1,left,left,1,1.483
NA,Time,Tuesday 19th of May 2015 11:33:14 AM txt,10,2,left,left,1,1.339
NA,Time,Tuesday 19th of May 2015 11:33:14 AM txt,10,3,right,left,0,-2.672
NA,Time,Tuesday 19th of May 2015 11:33:14 AM txt,10,4,right,right,1,2.979
NA,Time,Tuesday 19th of May 2015 11:33:14 AM txt,10,5,left,right,0,-1.986
NA,Time,Tuesday 19th of May 2015 11:33:14 AM txt,10,6,right,right,1,3.394
NA,Time,Tuesday 19th of May 2015 11:33:14 AM txt,10,7,right,right,1,2.212
NA,Time,Tuesday 19th of May 2015 11:33:14 AM txt,10,8,right,right,1,1.255
NA,Time,Tuesday 19th of May 2015 11:33:14 AM txt,10,9,right,right,1,1.401
NA,Time,Tuesday 19th of May 2015 11:33:14 AM txt,10,10,left,left,1,1.655
NA,Time,Tuesday 19th of May 2015 11:33:14 AM txt,10,11,right,left,0,-3.252
NA,Time,Tuesday 19th of May 2015 11:33:14 AM txt,10,12,right,right,1,2.574
NA,Time,Tuesday 19th of May 2015 11:33:14 AM txt,10,13,right,right,1,1.795
NA,Time,Tuesday 19th of May 2015 11:33:14 AM txt,10,14,left,left,1,1.483
NA,Time,Tuesday 19th of May 2015 11:33:14 AM txt,10,15,left,left,1,2.107
NA,Time,Tuesday 19th of May 2015 11:33:14 AM txt,10,16,left,left,1,1.364
NA,Time,Tuesday 19th of May 2015 11:33:14 AM txt,10,17,right,left,0,-2.161
NA,Time,Tuesday 19th of May 2015 11:33:14 AM txt,10,18,right,left,0,-2.104
NA,Time,Tuesday 19th of May 2015 11:33:14 AM txt,10,19,right,right,1,2.796
NA,Time,Tuesday 19th of May 2015 11:33:14 AM txt,10,20,left,left,1,1.685
NA,Time,Tuesday 19th of May 2015 11:33:14 AM txt,10,21,left,left,1,1.395
NA,Time,Tuesday 19th of May 2015 11:33:14 AM txt,10,22,left,left,1,1.169
NA,Time,Tuesday 19th of May 2015 11:33:14 AM txt,10,23,right,right,1,2.129
NA,Time,Tuesday 19th of May 2015 11:33:14 AM txt,10,24,left,left,1,1.706
NA,Time,Tuesday 19th of May 2015 11:33:14 AM txt,11,1,right,right,1,1.958
NA,Time,Tuesday 19th of May 2015 11:33:14 AM txt,11,2,right,right,1,2.474
NA,Time,Tuesday 19th of May 2015 11:33:14 AM txt,11,3,left,left,1,2.475
NA,Time,Tuesday 19th of May 2015 11:33:14 AM txt,11,4,left,left,1,2.029
NA,Time,Tuesday 19th of May 2015 11:33:14 AM txt,11,5,right,right,1,0.882
NA,Time,Tuesday 19th of May 2015 11:33:14 AM txt,11,6,left,left,1,0.667
NA,Time,Tuesday 19th of May 2015 11:33:14 AM txt,11,7,right,right,1,2.03
NA,Time,Tuesday 19th of May 2015 11:33:14 AM txt,11,8,right,right,1,1.157
NA,Time,Tuesday 19th of May 2015 11:33:14 AM txt,11,9,right,right,1,0.821
NA,Time,Tuesday 19th of May 2015 11:33:14 AM txt,11,10,right,right,1,1.46
NA,Time,Tuesday 19th of May 2015 11:33:14 AM txt,11,11,left,left,1,1.236
NA,Time,Tuesday 19th of May 2015 11:33:14 AM txt,11,12,left,left,1,2.238
NA,Time,Tuesday 19th of May 2015 11:33:14 AM txt,11,13,left,left,1,1.745
NA,Time,Tuesday 19th of May 2015 11:33:14 AM txt,11,14,left,left,1,3.368
NA,Time,Tuesday 19th of May 2015 11:33:14 AM txt,11,15,right,right,1,1.161
NA,Time,Tuesday 19th of May 2015 11:33:14 AM txt,11,16,left,left,1,1.272
NA,Time,Tuesday 19th of May 2015 11:33:14 AM txt,11,17,right,right,1,1.091
NA,Time,Tuesday 19th of May 2015 11:33:14 AM txt,11,18,left,left,1,1.345
NA,Time,Tuesday 19th of May 2015 11:33:14 AM txt,11,19,right,left,0,-2.566
NA,Time,Tuesday 19th of May 2015 11:33:14 AM txt,11,20,left,left,1,1.471
NA,Time,Tuesday 19th of May 2015 11:33:14 AM txt,11,21,left,left,1,2.855
NA,Time,Tuesday 19th of May 2015 11:33:14 AM txt,11,22,left,left,1,1.568
NA,Time,Tuesday 19th of May 2015 11:33:14 AM txt,11,23,left,left,1,1.138
NA,Time,Tuesday 19th of May 2015 11:33:14 AM txt,11,24,right,right,1,0.778
NA,Time,Tuesday 19th of May 2015 11:33:14 AM txt,11,25,left,left,1,0.944
NA,Time,Tuesday 19th of May 2015 11:33:14 AM txt,11,26,left,left,1,0.722
NA,Time,Tuesday 19th of May 2015 11:33:14 AM txt,11,27,right,right,1,0.895
NA,Time,Tuesday 19th of May 2015 11:33:14 AM txt,11,28,left,right,0,-3.616
NA,Time,Tuesday 19th of May 2015 11:33:14 AM txt,11,29,left,left,1,2.004
NA,Time,Tuesday 19th of May 2015 11:33:14 AM txt,12,1,left,left,1,1.484
NA,Time,Tuesday 19th of May 2015 11:33:14 AM txt,12,2,right,right,1,2.692
NA,Time,Tuesday 19th of May 2015 11:33:14 AM txt,12,3,right,right,1,2.092
NA,Time,Tuesday 19th of May 2015 11:33:14 AM txt,12,4,left,left,1,1.148
NA,Time,Tuesday 19th of May 2015 11:33:14 AM txt,12,5,left,left,1,1.195
NA,Time,Tuesday 19th of May 2015 11:33:14 AM txt,12,6,left,left,1,1.884
NA,Time,Tuesday 19th of May 2015 11:33:14 AM txt,12,7,right,right,1,1.438
NA,Time,Tuesday 19th of May 2015 11:33:14 AM txt,12,8,left,left,1,1.158
NA,Time,Tuesday 19th of May 2015 11:33:14 AM txt,12,9,right,right,1,1.341
NA,Time,Tuesday 19th of May 2015 11:33:14 AM txt,12,10,left,left,1,1.225
NA,Time,Tuesday 19th of May 2015 11:33:14 AM txt,12,11,left,left,1,0.906
NA,Time,Tuesday 19th of May 2015 11:33:14 AM txt,12,12,left,left,1,1.724
NA,Time,Tuesday 19th of May 2015 11:33:14 AM txt,12,13,right,right,1,1.914
NA,Time,Tuesday 19th of May 2015 11:33:14 AM txt,12,14,right,right,1,1.614
NA,Time,Tuesday 19th of May 2015 11:33:14 AM txt,12,15,right,right,1,0.897
NA,Time,Tuesday 19th of May 2015 11:33:14 AM txt,12,16,left,left,1,1.171
NA,Time,Tuesday 19th of May 2015 11:33:14 AM txt,12,17,left,left,1,1.107
NA,Time,Tuesday 19th of May 2015 11:33:14 AM txt,12,18,left,left,1,2.026
NA,Time,Tuesday 19th of May 2015 11:33:14 AM txt,12,19,right,right,1,2.584
NA,Time,Tuesday 19th of May 2015 11:33:14 AM txt,12,20,right,left,0,-2.244
NA,Time,Tuesday 19th of May 2015 11:33:14 AM txt,12,21,left,left,1,2.253
NA,Time,Tuesday 19th of May 2015 11:33:14 AM txt,12,22,right,left,0,-5.305
NA,Time,Tuesday 19th of May 2015 11:33:14 AM txt,12,23,left,left,1,1.064
NA,Time,Tuesday 19th of May 2015 11:33:14 AM txt,12,24,left,left,1,1.526
NA,Time,Tuesday 19th of May 2015 11:33:14 AM txt,12,25,right,left,0,-2.335
NA,Time,Tuesday 19th of May 2015 11:33:14 AM txt,12,26,left,left,1,1.946
NA,Time,Tuesday 19th of May 2015 11:33:14 AM txt,12,27,left,left,1,0.853
NA,Time,Tuesday 19th of May 2015 11:33:14 AM txt,12,28,right,right,1,3.949
NA,Time,Tuesday 19th of May 2015 11:33:14 AM txt,13,1,left,left,1,1.83
NA,Time,Tuesday 19th of May 2015 11:33:14 AM txt,13,2,left,left,1,1.007
NA,Time,Tuesday 19th of May 2015 11:33:14 AM txt,13,3,left,left,1,1.483
NA,Time,Tuesday 19th of May 2015 11:33:14 AM txt,13,4,right,right,1,1.908
NA,Time,Tuesday 19th of May 2015 11:33:14 AM txt,13,5,left,left,1,1.471
NA,Time,Tuesday 19th of May 2015 11:33:14 AM txt,13,6,left,left,1,2.815
NA,Time,Tuesday 19th of May 2015 11:33:14 AM txt,13,7,right,right,1,1.953
NA,Time,Tuesday 19th of May 2015 11:33:14 AM txt,13,8,left,left,1,1.158
NA,Time,Tuesday 19th of May 2015 11:33:14 AM txt,13,9,left,left,1,0.726
NA,Time,Tuesday 19th of May 2015 11:33:14 AM txt,13,10,left,left,1,0.762
NA,Time,Tuesday 19th of May 2015 11:33:14 AM txt,13,11,left,left,1,0.832
NA,Time,Tuesday 19th of May 2015 11:33:14 AM txt,13,12,left,left,1,1.071
NA,Time,Tuesday 19th of May 2015 11:33:14 AM txt,13,13,right,right,1,1.749
NA,Time,Tuesday 19th of May 2015 11:33:14 AM txt,13,14,right,right,1,1.892
NA,Time,Tuesday 19th of May 2015 11:33:14 AM txt,13,15,right,right,1,4.974
NA,Time,Tuesday 19th of May 2015 11:33:14 AM txt,13,16,left,left,1,1.432
NA,Time,Tuesday 19th of May 2015 11:33:14 AM txt,13,17,right,right,1,1.207
NA,Time,Tuesday 19th of May 2015 11:33:14 AM txt,13,18,left,left,1,0.657
NA,Time,Tuesday 19th of May 2015 11:33:14 AM txt,13,19,left,left,1,0.859
NA,Time,Tuesday 19th of May 2015 11:33:14 AM txt,13,20,right,right,1,1.819
NA,Time,Tuesday 19th of May 2015 11:33:14 AM txt,13,21,right,right,1,1.316
NA,Time,Tuesday 19th of May 2015 11:33:14 AM txt,13,22,right,right,1,1.504
NA,Time,Tuesday 19th of May 2015 11:33:14 AM txt,13,23,left,left,1,0.913
NA,Time,Tuesday 19th of May 2015 11:33:14 AM txt,13,24,right,right,1,0.659
NA,Time,Tuesday 19th of May 2015 11:33:14 AM txt,13,25,left,right,0,-1.582
NA,Time,Tuesday 19th of May 2015 11:33:14 AM txt,13,26,right,right,1,0.926
NA,Time,Tuesday 19th of May 2015 11:33:14 AM txt,13,27,right,right,1,0.952
NA,Time,Tuesday 19th of May 2015 11:33:14 AM txt,13,28,left,left,1,1.362
NA,Time,Tuesday 19th of May 2015 11:33:14 AM txt,13,29,right,right,1,1.248
NA,Time,Tuesday 19th of May 2015 11:33:14 AM txt,13,30,right,right,1,1.354
NA,Time,Tuesday 19th of May 2015 11:33:14 AM txt,13,31,left,left,1,1.095
NA,Time,Tuesday 19th of May 2015 11:33:14 AM txt,13,32,right,right,1,1.525
NA,Time,Tuesday 19th of May 2015 11:33:14 AM txt,13,33,right,right,1,2.758
NA,Time,Tuesday 19th of May 2015 11:33:14 AM txt,14,1,right,right,1,1.367
NA,Time,Tuesday 19th of May 2015 11:33:14 AM txt,14,2,right,right,1,1.172
NA,Time,Tuesday 19th of May 2015 11:33:14 AM txt,14,3,right,left,0,-3.229
NA,Time,Tuesday 19th of May 2015 11:33:14 AM txt,14,4,right,right,1,0.911
NA,Time,Tuesday 19th of May 2015 11:33:14 AM txt,14,5,right,right,1,0.849
NA,Time,Tuesday 19th of May 2015 11:33:14 AM txt,14,6,left,left,1,0.977
