id,feedback,trial_condition,block,trial,correct_resp,resp,correct,rt
1,Norm,Trial,1,1,right,left,0,-6.49
1,Norm,Trial,1,2,right,right,1,8.578
1,Norm,Trial,1,3,right,right,1,5.007
1,Norm,Trial,1,4,left,left,1,2.343
1,Norm,Trial,1,5,left,right,0,-2.047
1,Norm,Trial,1,6,right,left,0,-4.363
1,Norm,Trial,1,7,right,right,1,8.915
1,Norm,Trial,1,8,right,right,1,5.526
1,Norm,Trial,1,9,left,left,1,2.575
1,Norm,Trial,1,10,right,right,1,1.75
1,Norm,Trial,1,11,left,left,1,4.294
1,Norm,Trial,1,12,right,right,1,3.215
1,Norm,Trial,1,13,right,right,1,2.143
1,Norm,Trial,1,14,left,left,1,1.311
1,Norm,Trial,1,15,right,left,0,-3.287
1,Norm,Trial,1,16,right,right,1,3.731
1,Norm,Trial,1,17,right,right,1,5.718
1,Norm,Trial,1,18,left,right,0,-3.238
1,Norm,Trial,1,19,left,left,1,1.907
1,Norm,Trial,1,20,left,left,1,3.759
1,Norm,Trial,1,21,left,left,1,1.951
1,Norm,Trial,1,22,left,left,1,2.695
1,Norm,Trial,1,23,right,right,1,3.919
1,Norm,Trial,1,24,left,left,1,2.07
1,Norm,Trial,1,25,right,right,1,1.79
1,Norm,Trial,1,26,right,left,0,-1.767
1,Norm,Trial,1,27,left,right,0,-2.923
1,Norm,Trial,1,28,left,left,1,7.027
1,Norm,Trial,1,29,left,left,1,4.928
1,Norm,Trial,1,30,left,left,1,4.12
1,Norm,Trial,1,31,left,left,1,4.991
1,Norm,Trial,1,32,right,left,0,-1.67
1,Norm,Trial,1,33,left,left,1,2.843
1,Norm,Trial,1,34,left,left,1,4.263
1,Norm,Trial,1,35,right,right,1,1.734
1,Norm,Trial,1,36,left,left,1,2.174
1,Norm,Trial,1,37,right,right,1,3.286
1,Norm,Trial,1,38,right,left,0,-2.471
1,Norm,Trial,1,39,right,right,1,2.163
1,Norm,Trial,1,40,left,right,0,-4.047
1,Norm,Trial,2,1,right,right,1,4.459
1,Norm,Trial,2,2,left,left,1,5.759
1,Norm,Trial,2,3,left,right,0,-3.439
1,Norm,Trial,2,4,left,left,1,1.123
1,Norm,Trial,2,5,right,left,0,-2.006
1,Norm,Trial,2,6,left,right,0,-3.547
1,Norm,Trial,2,7,right,right,1,5.395
1,Norm,Trial,2,8,left,left,1,6.687
1,Norm,Trial,2,9,right,right,1,3.815
1,Norm,Trial,2,10,left,left,1,1.327
1,Norm,Trial,2,11,right,right,1,2.567
1,Norm,Trial,2,12,right,right,1,3.839
1,Norm,Trial,2,13,right,left,0,-2.84
1,Norm,Trial,2,14,right,right,1,2.322
1,Norm,Trial,2,15,left,left,1,3.103
1,Norm,Trial,2,16,right,right,1,2.174
1,Norm,Trial,2,17,left,left,1,2.558
1,Norm,Trial,2,18,right,right,1,3.215
1,Norm,Trial,2,19,left,left,1,2.583
1,Norm,Trial,2,20,right,right,1,3.111
1,Norm,Trial,2,21,left,left,1,2.615
1,Norm,Trial,2,22,right,right,1,3.415
1,Norm,Trial,2,23,right,right,1,3.008
1,Norm,Trial,2,24,left,left,1,2.632
1,Norm,Trial,2,25,right,right,1,1.895
1,Norm,Trial,2,26,right,right,1,4.11
1,Norm,Trial,2,27,right,right,1,1.871
1,Norm,Trial,2,28,right,right,1,4.087
1,Norm,Trial,2,29,right,right,1,3.471
1,Norm,Trial,2,30,left,right,0,-4.895
1,Norm,Trial,2,31,right,left,0,-1.523
1,Norm,Trial,2,32,left,left,1,7.715
1,Norm,Trial,2,33,right,right,1,2.727
1,Norm,Trial,2,34,left,right,0,-4.031
1,Norm,Trial,2,35,left,left,1,3.083
1,Norm,Trial,2,36,left,right,0,-2.999
1,Norm,Trial,2,37,left,left,1,1.107
1,Norm,Trial,2,38,left,left,1,3.638
1,Norm,Trial,2,39,left,left,1,3.031
1,Norm,Trial,2,40,left,left,1,9.551
1,Norm,Trial,3,1,right,right,1,1.291
1,Norm,Trial,3,2,left,right,0,-6.503
1,Norm,Trial,3,3,left,left,1,1.307
1,Norm,Trial,3,4,right,right,1,0.951
1,Norm,Trial,3,5,left,right,0,-1.983
1,Norm,Trial,3,6,right,right,1,3.092
1,Norm,Trial,3,7,right,right,1,1.943
1,Norm,Trial,3,8,right,right,1,3.07
1,Norm,Trial,3,9,right,right,1,3.254
1,Norm,Trial,3,10,left,left,1,1.078
1,Norm,Trial,3,11,left,right,0,-4.127
1,Norm,Trial,3,12,right,right,1,1.667
1,Norm,Trial,3,13,right,right,1,3.727
1,Norm,Trial,3,14,left,left,1,1.246
1,Norm,Trial,3,15,right,right,1,1.094
1,Norm,Trial,3,16,right,right,1,2.303
1,Norm,Trial,3,17,left,right,0,-1.736
1,Norm,Trial,3,18,left,right,0,-0.867
1,Norm,Trial,3,19,right,right,1,3.979
1,Norm,Trial,3,20,right,right,1,4.583
1,Norm,Trial,3,21,left,left,1,1.016
1,Norm,Trial,3,22,left,right,0,-3.711
1,Norm,Trial,3,23,left,left,1,2.083
1,Norm,Trial,3,24,left,left,1,1.271
1,Norm,Trial,3,25,left,left,1,2.038
1,Norm,Trial,3,26,left,left,1,3.134
1,Norm,Trial,3,27,left,left,1,1.711
1,Norm,Trial,3,28,left,left,1,1.007
1,Norm,Trial,3,29,left,left,1,1.047
1,Norm,Trial,3,30,right,right,1,0.984
1,Norm,Trial,3,31,left,left,1,1.519
1,Norm,Trial,3,32,right,right,1,1.287
1,Norm,Trial,3,33,right,right,1,1.438
1,Norm,Trial,3,34,right,right,1,1.734
1,Norm,Trial,3,35,right,right,1,1.142
1,Norm,Trial,3,36,right,right,1,1.143
1,Norm,Trial,3,37,left,left,1,1.375
1,Norm,Trial,3,38,right,right,1,0.799
1,Norm,Trial,3,39,right,right,1,1.543
1,Norm,Trial,3,40,left,left,1,1.287
1,Norm,Trial,4,1,right,left,0,-1.076
1,Norm,Trial,4,2,left,left,1,2.267
1,Norm,Trial,4,3,right,left,0,-1.888
1,Norm,Trial,4,4,right,right,1,4.371
1,Norm,Trial,4,5,right,left,0,-1.902
1,Norm,Trial,4,6,right,left,0,-1.291
1,Norm,Trial,4,7,right,left,0,-8.282
1,Norm,Trial,4,8,left,left,1,6.235
1,Norm,Trial,4,9,left,left,1,2.11
1,Norm,Trial,4,10,left,left,1,1.151
1,Norm,Trial,4,11,right,right,1,3.743
1,Norm,Trial,4,12,left,left,1,2.479
1,Norm,Trial,4,13,left,right,0,-2.223
1,Norm,Trial,4,14,right,left,0,-0.771
1,Norm,Trial,4,15,right,right,1,3.115
1,Norm,Trial,4,16,left,left,1,1.288
1,Norm,Trial,4,17,left,left,1,4.296
1,Norm,Trial,4,18,right,right,1,7.454
1,Norm,Trial,4,19,left,left,1,1.839
1,Norm,Trial,4,20,right,right,1,1.095
1,Norm,Trial,4,21,left,left,1,1.271
1,Norm,Trial,4,22,right,right,1,1.143
1,Norm,Trial,4,23,left,right,0,-1.495
1,Norm,Trial,4,24,left,right,0,-2.875
1,Norm,Trial,4,25,right,right,1,4.002
1,Norm,Trial,4,26,left,right,0,-3.399
1,Norm,Trial,4,27,left,left,1,5.339
1,Norm,Trial,4,28,left,left,1,1.871
1,Norm,Trial,4,29,left,left,1,2.856
1,Norm,Trial,4,30,right,left,0,-2.296
1,Norm,Trial,4,31,right,right,1,1.515
1,Norm,Trial,4,32,left,left,1,2.951
1,Norm,Trial,4,33,left,right,0,-5.774
1,Norm,Trial,4,34,right,left,0,-2.235
1,Norm,Trial,4,35,left,right,0,-2.891
1,Norm,Trial,4,36,right,right,1,4.003
1,Norm,Trial,4,37,right,right,1,4.006
1,Norm,Trial,4,38,right,right,1,3.079
1,Norm,Trial,4,39,left,right,0,-3.783
1,Norm,Trial,4,40,right,right,1,4.507
1,Norm,Trial,5,1,right,right,1,1.011
1,Norm,Trial,5,2,left,right,0,-2.159
1,Norm,Trial,5,3,right,right,1,2.947
1,Norm,Trial,5,4,left,left,1,0.814
1,Norm,Trial,5,5,left,left,1,1.791
1,Norm,Trial,5,6,right,right,1,3.359
1,Norm,Trial,5,7,left,left,1,5.807
1,Norm,Trial,5,8,left,left,1,1.135
1,Norm,Trial,5,9,left,left,1,0.919
1,Norm,Trial,5,10,right,right,1,1.055
1,Norm,Trial,5,11,left,left,1,0.824
1,Norm,Trial,5,12,left,left,1,0.832
1,Norm,Trial,5,13,left,left,1,1.12
1,Norm,Trial,5,14,right,left,0,-1.424
1,Norm,Trial,5,15,right,left,0,-1.266
1,Norm,Trial,5,16,left,left,1,4.05
1,Norm,Trial,5,17,right,right,1,1.95
1,Norm,Trial,5,18,left,left,1,2.342
1,Norm,Trial,5,19,right,right,1,1.568
1,Norm,Trial,5,20,right,right,1,2.535
1,Norm,Trial,5,21,left,left,1,4.783
1,Norm,Trial,5,22,right,right,1,1.591
1,Norm,Trial,5,23,right,left,0,-2.422
1,Norm,Trial,5,24,left,left,1,3.723
1,Norm,Trial,5,25,right,right,1,1.127
1,Norm,Trial,5,26,right,right,1,3.471
1,Norm,Trial,5,27,left,left,1,1.071
1,Norm,Trial,5,28,left,right,0,-1.399
1,Norm,Trial,5,29,right,right,1,1.876
1,Norm,Trial,5,30,right,right,1,2.712
1,Norm,Trial,5,31,left,left,1,1.95
1,Norm,Trial,5,32,right,right,1,1.785
1,Norm,Trial,5,33,right,right,1,1.486
1,Norm,Trial,5,34,left,left,1,1.126
1,Norm,Trial,5,35,left,left,1,1.23
1,Norm,Trial,5,36,right,right,1,1.527
1,Norm,Trial,5,37,right,left,0,-1.167
1,Norm,Trial,5,38,left,left,1,2.739
1,Norm,Trial,5,39,right,right,1,1.487
1,Norm,Trial,5,40,left,left,1,2.903
1,Norm,Trial,6,1,right,right,1,1.948
1,Norm,Trial,6,2,left,left,1,0.814
1,Norm,Trial,6,3,left,left,1,0.967
1,Norm,Trial,6,4,right,right,1,1.127
1,Norm,Trial,6,5,left,left,1,1.127
1,Norm,Trial,6,6,right,right,1,0.943
1,Norm,Trial,6,7,right,right,1,2.152
1,Norm,Trial,6,8,right,right,1,1.295
1,Norm,Trial,6,9,left,right,0,-2.208
1,Norm,Trial,6,10,right,right,1,0.876
1,Norm,Trial,6,11,right,right,1,1.848
1,Norm,Trial,6,12,right,left,0,-0.703
1,Norm,Trial,6,13,left,left,1,2.627
1,Norm,Trial,6,14,left,left,1,1.614
1,Norm,Trial,6,15,right,right,1,2.423
1,Norm,Trial,6,16,left,left,1,1.078
1,Norm,Trial,6,17,left,left,1,1.623
1,Norm,Trial,6,18,right,left,0,-2.279
1,Norm,Trial,6,19,left,left,1,0.835
1,Norm,Trial,6,20,left,left,1,1.055
1,Norm,Trial,6,21,right,right,1,0.871
1,Norm,Trial,6,22,left,left,1,0.975
1,Norm,Trial,6,23,right,right,1,1.623
1,Norm,Trial,6,24,left,left,1,1.223
1,Norm,Trial,6,25,right,right,1,1.058
1,Norm,Trial,6,26,left,left,1,1.326
1,Norm,Trial,6,27,right,right,1,1.335
1,Norm,Trial,6,28,left,left,1,1.247
1,Norm,Trial,6,29,left,right,0,-1.127
1,Norm,Trial,6,30,left,left,1,0.763
1,Norm,Trial,6,31,right,right,1,2.023
1,Norm,Trial,6,32,left,right,0,-1.175
1,Norm,Trial,6,33,right,right,1,0.771
1,Norm,Trial,6,34,left,left,1,0.839
1,Norm,Trial,6,35,right,right,1,1.096
1,Norm,Trial,6,36,right,right,1,0.872
1,Norm,Trial,6,37,right,right,1,0.92
1,Norm,Trial,6,38,left,left,1,1.688
1,Norm,Trial,6,39,right,right,1,2.935
1,Norm,Trial,6,40,left,right,0,-1.318
1,Norm,Trial,7,1,right,right,1,0.683
1,Norm,Trial,7,2,right,right,1,1.319
1,Norm,Trial,7,3,right,left,0,-2.327
1,Norm,Trial,7,4,left,right,0,-1.267
1,Norm,Trial,7,5,left,right,0,-0.907
1,Norm,Trial,7,6,left,left,1,1.067
1,Norm,Trial,7,7,right,right,1,2.983
1,Norm,Trial,7,8,left,left,1,0.742
1,Norm,Trial,7,9,left,left,1,0.718
1,Norm,Trial,7,10,right,right,1,1.663
1,Norm,Trial,7,11,left,left,1,0.823
1,Norm,Trial,7,12,right,right,1,0.911
1,Norm,Trial,7,13,right,right,1,1.063
1,Norm,Trial,7,14,left,left,1,0.599
1,Norm,Trial,7,15,right,left,0,-1.007
1,Norm,Trial,7,16,right,right,1,1.939
1,Norm,Trial,7,17,left,left,1,1.335
1,Norm,Trial,7,18,right,left,0,-1.271
1,Norm,Trial,7,19,right,right,1,1.172
1,Norm,Trial,7,20,left,left,1,1.616
1,Norm,Trial,7,21,left,right,0,-1.143
1,Norm,Trial,7,22,left,left,1,1.236
1,Norm,Trial,7,23,right,left,0,-1.046
1,Norm,Trial,7,24,right,right,1,1.602
1,Norm,Trial,7,25,right,right,1,1.902
1,Norm,Trial,7,26,left,left,1,2.326
1,Norm,Trial,7,27,left,right,0,-0.679
1,Norm,Trial,7,28,left,left,1,2.483
1,Norm,Trial,7,29,right,left,0,-1.583
1,Norm,Trial,7,30,left,right,0,-0.675
1,Norm,Trial,7,31,left,left,1,0.995
1,Norm,Trial,7,32,left,right,0,-1.127
1,Norm,Trial,7,33,left,left,1,1.091
1,Norm,Trial,7,34,right,right,1,1.607
1,Norm,Trial,7,35,right,right,1,4.655
1,Norm,Trial,7,36,left,left,1,1.119
1,Norm,Trial,7,37,right,right,1,0.751
1,Norm,Trial,7,38,right,right,1,1.927
1,Norm,Trial,7,39,right,right,1,3.047
1,Norm,Trial,7,40,left,right,0,-1.671
1,Norm,Trial,8,1,right,right,1,1.627
1,Norm,Trial,8,2,right,right,1,1.398
1,Norm,Trial,8,3,left,right,0,-1.191
1,Norm,Trial,8,4,right,right,1,0.922
1,Norm,Trial,8,5,right,left,0,-0.654
1,Norm,Trial,8,6,right,right,1,0.834
1,Norm,Trial,8,7,left,right,0,-2.943
1,Norm,Trial,8,8,left,left,1,1.307
1,Norm,Trial,8,9,left,left,1,1.591
1,Norm,Trial,8,10,left,left,1,1.711
1,Norm,Trial,8,11,right,right,1,0.695
1,Norm,Trial,8,12,right,right,1,1.575
1,Norm,Trial,8,13,left,left,1,0.991
1,Norm,Trial,8,14,right,right,1,1.031
1,Norm,Trial,8,15,left,left,1,1.095
1,Norm,Trial,8,16,right,right,1,1.895
1,Norm,Trial,8,17,right,left,0,-1.903
1,Norm,Trial,8,18,right,right,1,0.659
1,Norm,Trial,8,19,right,right,1,1.199
1,Norm,Trial,8,20,right,left,0,-1.664
1,Norm,Trial,8,21,left,right,0,-1.083
1,Norm,Trial,8,22,right,right,1,0.731
1,Norm,Trial,8,23,left,right,0,-1.439
1,Norm,Trial,8,24,left,left,1,1.381
1,Norm,Trial,8,25,left,left,1,2.039
1,Norm,Trial,8,26,left,left,1,1.24
1,Norm,Trial,8,27,right,right,1,0.983
1,Norm,Trial,8,28,left,left,1,1.446
1,Norm,Trial,8,29,left,right,0,-1.598
1,Norm,Trial,8,30,left,left,1,1.218
1,Norm,Trial,8,31,right,left,0,-2.182
1,Norm,Trial,8,32,right,left,0,-1.259
1,Norm,Trial,8,33,left,left,1,1.243
1,Norm,Trial,8,34,left,left,1,5.895
1,Norm,Trial,8,35,left,left,1,1.503
1,Norm,Trial,8,36,right,left,0,-1.999
1,Norm,Trial,8,37,right,right,1,1.275
1,Norm,Trial,8,38,left,left,1,1.327
1,Norm,Trial,8,39,right,right,1,1.192
1,Norm,Trial,8,40,left,left,1,1.071
1,Norm,Trial,9,1,right,right,1,3.714
1,Norm,Trial,9,2,left,left,1,0.782
1,Norm,Trial,9,3,left,left,1,1.358
1,Norm,Trial,9,4,left,left,1,1.046
1,Norm,Trial,9,5,left,left,1,0.703
1,Norm,Trial,9,6,left,left,1,0.575
1,Norm,Trial,9,7,right,right,1,0.855
1,Norm,Trial,9,8,left,left,1,0.647
1,Norm,Trial,9,9,right,left,0,-0.975
1,Norm,Trial,9,10,right,right,1,0.643
1,Norm,Trial,9,11,left,left,1,2.223
1,Norm,Trial,9,12,left,right,0,-0.527
1,Norm,Trial,9,13,right,left,0,-0.715
1,Norm,Trial,9,14,right,right,1,0.707
1,Norm,Trial,9,15,left,right,0,-2.175
1,Norm,Trial,9,16,left,left,1,0.987
1,Norm,Trial,9,17,right,left,0,-1.287
1,Norm,Trial,9,18,left,left,1,2.195
1,Norm,Trial,9,19,left,left,1,3.407
1,Norm,Trial,9,20,right,right,1,2.367
1,Norm,Trial,9,21,right,right,1,2.455
1,Norm,Trial,9,22,left,right,0,-2.623
1,Norm,Trial,9,23,right,right,1,2.572
1,Norm,Trial,9,24,right,left,0,-1.191
1,Norm,Trial,9,25,left,right,0,-1.13
1,Norm,Trial,9,26,right,left,0,-2.826
1,Norm,Trial,9,27,right,right,1,4.115
1,Norm,Trial,9,28,right,right,1,2.455
1,Norm,Trial,9,29,left,left,1,2.111
1,Norm,Trial,9,30,left,right,0,-2.167
1,Norm,Trial,9,31,right,right,1,3.227
1,Norm,Trial,9,32,right,left,0,-1.799
1,Norm,Trial,9,33,right,right,1,1.003
1,Norm,Trial,9,34,left,left,1,4.023
1,Norm,Trial,9,35,right,left,0,-3.119
1,Norm,Trial,9,36,left,left,1,1.227
1,Norm,Trial,9,37,left,left,1,1.415
1,Norm,Trial,9,38,left,right,0,-1.632
1,Norm,Trial,9,39,right,right,1,1.899
1,Norm,Trial,9,40,right,right,1,1.399
1,Norm,Trial,10,1,left,left,1,1.483
1,Norm,Trial,10,2,right,right,1,0.607
1,Norm,Trial,10,3,left,right,0,-0.775
1,Norm,Trial,10,4,right,left,0,-1.748
1,Norm,Trial,10,5,left,right,0,-0.706
1,Norm,Trial,10,6,left,left,1,1.218
1,Norm,Trial,10,7,right,right,1,2.278
1,Norm,Trial,10,8,left,left,1,1.382
1,Norm,Trial,10,9,right,left,0,-1.135
1,Norm,Trial,10,10,left,left,1,0.907
1,Norm,Trial,10,11,left,left,1,3.903
1,Norm,Trial,10,12,right,right,1,2.263
1,Norm,Trial,10,13,right,right,1,1.431
1,Norm,Trial,10,14,left,left,1,0.928
1,Norm,Trial,10,15,right,left,0,-1.456
1,Norm,Trial,10,16,right,right,1,0.698
1,Norm,Trial,10,17,left,left,1,2.055
1,Norm,Trial,10,18,right,right,1,1.295
1,Norm,Trial,10,19,left,left,1,0.967
1,Norm,Trial,10,20,right,left,0,-2.615
1,Norm,Trial,10,21,right,left,0,-1.211
1,Norm,Trial,10,22,right,right,1,1.402
1,Norm,Trial,10,23,left,left,1,0.8
1,Norm,Trial,10,24,left,right,0,-1.838
1,Norm,Trial,10,25,right,right,1,1.923
1,Norm,Trial,10,26,right,right,1,1.271
1,Norm,Trial,10,27,left,left,1,0.983
1,Norm,Trial,10,28,left,left,1,1.759
1,Norm,Trial,10,29,left,right,0,-0.982
1,Norm,Trial,10,30,right,right,1,0.554
1,Norm,Trial,10,31,left,left,1,0.726
1,Norm,Trial,10,32,right,right,1,1.52
1,Norm,Trial,10,33,right,left,0,-1.382
1,Norm,Trial,10,34,left,right,0,-2.027
1,Norm,Trial,10,35,left,left,1,1.259
1,Norm,Trial,10,36,right,right,1,0.911
1,Norm,Trial,10,37,right,right,1,1.519
1,Norm,Trial,10,38,left,left,1,1.231
1,Norm,Trial,10,39,right,right,1,1.016
1,Norm,Trial,10,40,left,right,0,-1.239
1,Norm,Trial,11,1,right,right,1,1.403
1,Norm,Trial,11,2,right,right,1,1.503
1,Norm,Trial,11,3,right,right,1,0.879
1,Norm,Trial,11,4,left,left,1,0.759
1,Norm,Trial,11,5,right,right,1,0.719
1,Norm,Trial,11,6,right,right,1,0.759
1,Norm,Trial,11,7,left,right,0,-2.015
1,Norm,Trial,11,8,left,right,0,-0.667
1,Norm,Trial,11,9,left,left,1,0.779
1,Norm,Trial,11,10,right,right,1,0.72
1,Norm,Trial,11,11,right,left,0,-0.791
1,Norm,Trial,11,12,left,left,1,1.051
1,Norm,Trial,11,13,left,right,0,-1.639
1,Norm,Trial,11,14,left,left,1,1.187
1,Norm,Trial,11,15,left,right,0,-2.471
1,Norm,Trial,11,16,left,left,1,1.098
1,Norm,Trial,11,17,right,right,1,0.734
1,Norm,Trial,11,18,left,left,1,0.679
1,Norm,Trial,11,19,left,left,1,1.111
1,Norm,Trial,11,20,right,right,1,1.631
1,Norm,Trial,11,21,left,right,0,-2.319
1,Norm,Trial,11,22,right,left,0,-0.907
1,Norm,Trial,11,23,right,right,1,0.723
1,Norm,Trial,11,24,right,left,0,-1.231
1,Norm,Trial,11,25,right,right,1,0.875
1,Norm,Trial,11,26,left,left,1,1.151
1,Norm,Trial,11,27,left,left,1,1.376
1,Norm,Trial,11,28,left,left,1,0.695
1,Norm,Trial,11,29,right,left,0,-0.623
1,Norm,Trial,11,30,left,left,1,1.803
1,Norm,Trial,11,31,left,left,1,1.383
1,Norm,Trial,11,32,left,left,1,1.887
1,Norm,Trial,11,33,right,right,1,1.207
1,Norm,Trial,11,34,left,left,1,0.782
1,Norm,Trial,11,35,right,right,1,0.726
1,Norm,Trial,11,36,right,right,1,1.351
1,Norm,Trial,11,37,right,right,1,1.295
1,Norm,Trial,11,38,left,left,1,0.671
1,Norm,Trial,11,39,right,left,0,-0.895
1,Norm,Trial,11,40,right,left,0,-1.26
1,Norm,Trial,12,1,right,right,1,0.707
1,Norm,Trial,12,2,left,left,1,0.575
1,Norm,Trial,12,3,left,right,0,-0.543
1,Norm,Trial,12,4,left,left,1,1.235
1,Norm,Trial,12,5,right,right,1,0.912
1,Norm,Trial,12,6,left,left,1,0.68
1,Norm,Trial,12,7,right,right,1,0.599
1,Norm,Trial,12,8,right,right,1,1.462
1,Norm,Trial,12,9,left,left,1,0.762
1,Norm,Trial,12,10,right,right,1,0.746
1,Norm,Trial,12,11,left,right,0,-1.047
1,Norm,Trial,12,12,left,right,0,-0.899
1,Norm,Trial,12,13,left,right,0,-0.482
1,Norm,Trial,12,14,left,right,0,-0.498
1,Norm,Trial,12,15,left,left,1,3.044
1,Norm,Trial,12,16,left,right,0,-0.63
1,Norm,Trial,12,17,right,right,1,0.803
1,Norm,Trial,12,18,left,left,1,1.063
1,Norm,Trial,12,19,left,left,1,2.423
1,Norm,Trial,12,20,left,left,1,2.055
1,Norm,Trial,12,21,left,right,0,-1.702
1,Norm,Trial,12,22,right,right,1,0.826
1,Norm,Trial,12,23,right,left,0,-0.903
1,Norm,Trial,12,24,right,right,1,3.107
1,Norm,Trial,12,25,left,left,1,2.599
1,Norm,Trial,12,26,right,right,1,1.135
1,Norm,Trial,12,27,right,right,1,2.991
1,Norm,Trial,12,28,right,right,1,0.887
1,Norm,Trial,12,29,left,right,0,-1.752
1,Norm,Trial,12,30,left,right,0,-0.916
1,Norm,Trial,12,31,right,right,1,0.819
1,Norm,Trial,12,32,left,left,1,0.991
1,Norm,Trial,12,33,right,left,0,-1.031
1,Norm,Trial,12,34,right,left,0,-0.859
1,Norm,Trial,12,35,right,right,1,0.627
1,Norm,Trial,12,36,right,right,1,2.119
1,Norm,Trial,12,37,right,right,1,1.287
1,Norm,Trial,12,38,left,left,1,1.558
1,Norm,Trial,12,39,right,right,1,2.023
1,Norm,Trial,12,40,right,right,1,2.183
1,Norm,Trial,13,1,right,right,1,0.508
1,Norm,Trial,13,2,left,left,1,0.639
1,Norm,Trial,13,3,right,right,1,0.63
1,Norm,Trial,13,4,right,left,0,-0.742
1,Norm,Trial,13,5,right,left,0,-0.874
1,Norm,Trial,13,6,left,right,0,-0.571
1,Norm,Trial,13,7,right,right,1,1.291
1,Norm,Trial,13,8,right,left,0,-1.071
1,Norm,Trial,13,9,right,left,0,-0.851
1,Norm,Trial,13,10,left,left,1,0.899
1,Norm,Trial,13,11,left,right,0,-1.095
1,Norm,Trial,13,12,left,left,1,0.787
1,Norm,Trial,13,13,left,left,1,4.863
1,Norm,Trial,13,14,left,left,1,1.008
1,Norm,Trial,13,15,left,left,1,1.264
1,Norm,Trial,13,16,right,left,0,-1.207
1,Norm,Trial,13,17,left,left,1,0.795
1,Norm,Trial,13,18,left,right,0,-1.551
1,Norm,Trial,13,19,right,right,1,1.307
1,Norm,Trial,13,20,left,left,1,0.79
1,Norm,Trial,13,21,left,left,1,1.15
1,Norm,Trial,13,22,right,left,0,-0.998
1,Norm,Trial,13,23,left,left,1,0.835
1,Norm,Trial,13,24,left,left,1,0.767
1,Norm,Trial,13,25,left,right,0,-0.951
1,Norm,Trial,13,26,left,left,1,0.731
1,Norm,Trial,13,27,right,right,1,1.055
1,Norm,Trial,13,28,left,left,1,1.639
1,Norm,Trial,13,29,left,right,0,-1.671
1,Norm,Trial,13,30,right,right,1,0.858
1,Norm,Trial,13,31,left,left,1,0.942
1,Norm,Trial,13,32,right,right,1,1.127
1,Norm,Trial,13,33,right,left,0,-0.903
1,Norm,Trial,13,34,right,left,0,-0.699
1,Norm,Trial,13,35,right,right,1,0.883
1,Norm,Trial,13,36,right,right,1,1.775
1,Norm,Trial,13,37,left,left,1,0.959
1,Norm,Trial,13,38,right,right,1,1.439
1,Norm,Trial,13,39,right,left,0,-1.567
1,Norm,Trial,13,40,right,right,1,0.723
1,Norm,Trial,14,1,left,right,0,-0.619
1,Norm,Trial,14,2,right,left,0,-1.667
1,Norm,Trial,14,3,right,left,0,-0.771
1,Norm,Trial,14,4,right,right,1,1.291
1,Norm,Trial,14,5,right,left,0,-1.038
1,Norm,Trial,14,6,left,left,1,0.971
1,Norm,Trial,14,7,right,right,1,1.23
1,Norm,Trial,14,8,left,left,1,0.919
1,Norm,Trial,14,9,left,left,1,0.951
1,Norm,Trial,14,10,left,left,1,0.919
1,Norm,Trial,14,11,right,right,1,0.919
1,Norm,Trial,14,12,right,left,0,-0.999
1,Norm,Trial,14,13,left,left,1,0.875
1,Norm,Trial,14,14,right,right,1,0.903
1,Norm,Trial,14,15,right,left,0,-1.535
1,Norm,Trial,14,16,left,left,1,1.05
1,Norm,Trial,14,17,left,left,1,1.094
1,Norm,Trial,14,18,right,right,1,0.711
1,Norm,Trial,14,19,left,left,1,1.351
1,Norm,Trial,14,20,right,right,1,0.823
1,Norm,Trial,14,21,left,left,1,0.719
1,Norm,Trial,14,22,left,left,1,1.111
1,Norm,Trial,14,23,left,left,1,1.335
1,Norm,Trial,14,24,left,left,1,1.903
1,Norm,Trial,14,25,right,left,0,-2.351
1,Norm,Trial,14,26,left,left,1,0.643
1,Norm,Trial,14,27,left,right,0,-2.256
1,Norm,Trial,14,28,right,left,0,-0.62
1,Norm,Trial,14,29,right,left,0,-0.843
1,Norm,Trial,14,30,right,right,1,0.307
1,Norm,Trial,14,31,right,left,0,-0.863
1,Norm,Trial,14,32,left,left,1,0.851
1,Norm,Trial,14,33,left,left,1,0.862
1,Norm,Trial,14,34,left,left,1,2.558
1,Norm,Trial,14,35,right,right,1,0.934
1,Norm,Trial,14,36,right,left,0,-0.928
1,Norm,Trial,14,37,right,left,0,-0.778
1,Norm,Trial,14,38,right,right,1,0.883
1,Norm,Trial,14,39,left,left,1,2.791
1,Norm,Trial,14,40,left,left,1,2.776
1,Norm,Trial,15,1,right,left,0,-1.491
1,Norm,Trial,15,2,left,left,1,1.163
1,Norm,Trial,15,3,left,right,0,-0.743
1,Norm,Trial,15,4,right,left,0,-0.658
1,Norm,Trial,15,5,left,left,1,0.722
1,Norm,Trial,15,6,right,right,1,0.983
1,Norm,Trial,15,7,right,right,1,1.151
1,Norm,Trial,15,8,left,left,1,0.663
1,Norm,Trial,15,9,right,right,1,0.711
1,Norm,Trial,15,10,left,right,0,-1.215
1,Norm,Trial,15,11,left,left,1,0.868
1,Norm,Trial,15,12,right,right,1,1.415
1,Norm,Trial,15,13,left,left,1,0.607
1,Norm,Trial,15,14,left,right,0,-0.591
1,Norm,Trial,15,15,right,right,1,1.179
1,Norm,Trial,15,16,right,right,1,1.887
1,Norm,Trial,15,17,right,right,1,1.096
1,Norm,Trial,15,18,right,left,0,-0.791
1,Norm,Trial,15,19,right,right,1,0.619
1,Norm,Trial,15,20,right,right,1,1.079
1,Norm,Trial,15,21,right,right,1,0.862
1,Norm,Trial,15,22,left,left,1,0.806
1,Norm,Trial,15,23,right,right,1,0.678
1,Norm,Trial,15,24,right,right,1,0.918
1,Norm,Trial,15,25,left,left,1,2.27
1,Norm,Trial,15,26,left,right,0,-0.767
1,Norm,Trial,15,27,left,left,1,0.57
1,Norm,Trial,15,28,right,right,1,0.655
1,Norm,Trial,15,29,right,left,0,-0.855
1,Norm,Trial,15,30,left,left,1,1.003
1,Norm,Trial,15,31,right,right,1,1.007
1,Norm,Trial,15,32,right,right,1,0.935
1,Norm,Trial,15,33,left,left,1,0.703
1,Norm,Trial,15,34,left,right,0,-0.799
1,Norm,Trial,15,35,left,left,1,0.62
1,Norm,Trial,15,36,left,left,1,1.503
1,Norm,Trial,15,37,left,right,0,-0.839
1,Norm,Trial,15,38,left,left,1,0.635
1,Norm,Trial,15,39,right,right,1,1.199
1,Norm,Trial,15,40,left,left,1,1.527
1,Norm,Trial,16,1,left,left,1,0.9
1,Norm,Trial,16,2,left,left,1,1.247
1,Norm,Trial,16,3,left,left,1,0.792
1,Norm,Trial,16,4,left,right,0,-0.696
1,Norm,Trial,16,5,right,left,0,-0.572
1,Norm,Trial,16,6,left,right,0,-0.619
1,Norm,Trial,16,7,left,left,1,1.066
1,Norm,Trial,16,8,right,right,1,1.23
1,Norm,Trial,16,9,right,right,1,1.374
1,Norm,Trial,16,10,right,right,1,1.166
1,Norm,Trial,16,11,left,left,1,0.902
1,Norm,Trial,16,12,left,left,1,0.918
1,Norm,Trial,16,13,right,right,1,1.135
1,Norm,Trial,16,14,left,left,1,0.919
1,Norm,Trial,16,15,right,right,1,0.919
1,Norm,Trial,16,16,right,left,0,-0.967
1,Norm,Trial,16,17,right,right,1,1.163
1,Norm,Trial,16,18,left,right,0,-1.471
1,Norm,Trial,16,19,left,left,1,0.603
1,Norm,Trial,16,20,right,right,1,0.935
1,Norm,Trial,16,21,right,right,1,1.343
1,Norm,Trial,16,22,right,right,1,1.11
1,Norm,Trial,16,23,right,right,1,1.071
1,Norm,Trial,16,24,right,left,0,-0.832
1,Norm,Trial,16,25,right,right,1,0.723
1,Norm,Trial,16,26,right,right,1,1.023
1,Norm,Trial,16,27,right,left,0,-1.223
1,Norm,Trial,16,28,left,right,0,-0.867
1,Norm,Trial,16,29,left,left,1,1.483
1,Norm,Trial,16,30,left,left,1,2.071
1,Norm,Trial,16,31,right,right,1,1.135
1,Norm,Trial,16,32,left,left,1,0.696
1,Norm,Trial,16,33,left,left,1,1.288
1,Norm,Trial,16,34,right,right,1,0.816
1,Norm,Trial,16,35,left,left,1,1
1,Norm,Trial,16,36,left,right,0,-1.4
1,Norm,Trial,16,37,right,right,1,0.611
1,Norm,Trial,16,38,left,left,1,0.647
1,Norm,Trial,16,39,right,right,1,0.734
1,Norm,Trial,16,40,left,left,1,0.654
1,Norm,Trial,17,1,right,right,1,1.267
1,Norm,Trial,17,2,right,left,0,-1.43
1,Norm,Trial,17,3,right,right,1,0.563
1,Norm,Trial,17,4,left,left,1,0.695
1,Norm,Trial,17,5,right,right,1,1.047
1,Norm,Trial,17,6,right,right,1,1.247
1,Norm,Trial,17,7,right,left,0,-0.687
1,Norm,Trial,17,8,left,left,1,2.275
1,Norm,Trial,17,9,left,left,1,2.727
1,Norm,Trial,17,10,left,left,1,1.358
1,Norm,Trial,17,11,left,left,1,0.983
1,Norm,Trial,17,12,right,right,1,1.607
1,Norm,Trial,17,13,left,left,1,1.103
1,Norm,Trial,17,14,right,right,1,1.143
1,Norm,Trial,17,15,left,left,1,0.839
1,Norm,Trial,17,16,left,right,0,-1.511
1,Norm,Trial,17,17,left,left,1,0.571
1,Norm,Trial,17,18,left,left,1,1.215
1,Norm,Trial,17,19,left,left,1,1.047
1,Norm,Trial,17,20,right,right,1,1.487
1,Norm,Trial,17,21,left,right,0,-1.072
1,Norm,Trial,17,22,right,left,0,-0.604
1,Norm,Trial,17,23,left,tooFast,2,-0.188
1,Norm,Trial,17,24,right,right,1,0.971
1,Norm,Trial,17,25,left,left,1,5.214
1,Norm,Trial,17,26,left,left,1,0.943
1,Norm,Trial,17,27,left,right,0,-1.151
1,Norm,Trial,17,28,right,right,1,1.731
1,Norm,Trial,17,29,right,right,1,1.936
1,Norm,Trial,17,30,left,left,1,0.887
1,Norm,Trial,17,31,right,right,1,1.014
1,Norm,Trial,17,32,right,right,1,1.782
1,Norm,Trial,17,33,right,right,1,1.526
1,Norm,Trial,17,34,right,right,1,1.246
1,Norm,Trial,17,35,left,left,1,2.222
1,Norm,Trial,17,36,right,right,1,1.014
1,Norm,Trial,17,37,right,right,1,1.103
1,Norm,Trial,17,38,left,right,0,-1.663
1,Norm,Trial,17,39,left,left,1,0.731
1,Norm,Trial,17,40,right,left,0,-1.639
1,Norm,Trial,18,1,left,left,1,0.892
1,Norm,Trial,18,2,left,left,1,0.895
1,Norm,Trial,18,3,right,right,1,1.447
1,Norm,Trial,18,4,right,left,0,-0.831
1,Norm,Trial,18,5,right,left,0,-0.915
1,Norm,Trial,18,6,left,left,1,0.763
1,Norm,Trial,18,7,right,left,0,-2.615
1,Norm,Trial,18,8,left,left,1,1.611
1,Norm,Trial,18,9,left,right,0,-2.247
1,Norm,Trial,18,10,right,right,1,1.651
1,Norm,Trial,18,11,left,left,1,0.88
1,Norm,Trial,18,12,right,right,1,1.072
1,Norm,Trial,18,13,right,left,0,-1.416
1,Norm,Trial,18,14,right,right,1,1.54
1,Norm,Trial,18,15,right,right,1,1.599
1,Norm,Trial,18,16,left,right,0,-1.79
1,Norm,Trial,18,17,right,right,1,3.242
1,Norm,Trial,18,18,right,left,0,-0.887
1,Norm,Trial,18,19,left,right,0,-1.29
1,Norm,Trial,18,20,right,left,0,-0.819
1,Norm,Trial,18,21,right,right,1,1.355
1,Norm,Trial,18,22,right,right,1,2.103
1,Norm,Trial,18,23,right,right,1,2.351
1,Norm,Trial,18,24,left,right,0,-3.199
1,Norm,Trial,18,25,right,right,1,2.034
1,Norm,Trial,18,26,left,left,1,0.831
1,Norm,Trial,18,27,left,left,1,0.887
1,Norm,Trial,18,28,left,left,1,1.103
1,Norm,Trial,18,29,right,right,1,1.039
1,Norm,Trial,18,30,left,right,0,-1.495
1,Norm,Trial,18,31,right,left,0,-0.691
1,Norm,Trial,18,32,left,left,1,1.099
1,Norm,Trial,18,33,left,right,0,-1.663
1,Norm,Trial,18,34,left,left,1,1.027
1,Norm,Trial,18,35,left,left,1,1.128
1,Norm,Trial,18,36,left,left,1,1.408
1,Norm,Trial,18,37,right,right,1,1.248
1,Norm,Trial,18,38,left,left,1,0.982
1,Norm,Trial,18,39,right,right,1,1.03
1,Norm,Trial,18,40,left,right,0,-1.502
1,Norm,Trial,19,1,left,left,1,1.491
1,Norm,Trial,19,2,right,right,1,0.711
1,Norm,Trial,19,3,left,right,0,-1.127
1,Norm,Trial,19,4,right,right,1,1.515
1,Norm,Trial,19,5,right,right,1,1.343
1,Norm,Trial,19,6,left,left,1,1.128
1,Norm,Trial,19,7,right,left,0,-1.263
1,Norm,Trial,19,8,left,left,1,0.716
1,Norm,Trial,19,9,right,right,1,0.775
1,Norm,Trial,19,10,right,left,0,-1.319
1,Norm,Trial,19,11,right,right,1,1.178
1,Norm,Trial,19,12,left,right,0,-1.094
1,Norm,Trial,19,13,right,left,0,-0.658
1,Norm,Trial,19,14,left,right,0,-0.61
1,Norm,Trial,19,15,left,right,0,-0.722
1,Norm,Trial,19,16,right,right,1,0.675
1,Norm,Trial,19,17,left,right,0,-1.319
1,Norm,Trial,19,18,left,left,1,0.771
1,Norm,Trial,19,19,left,right,0,-0.791
1,Norm,Trial,19,20,right,right,1,1.059
1,Norm,Trial,19,21,right,right,1,0.928
1,Norm,Trial,19,22,left,left,1,3.303
1,Norm,Trial,19,23,left,right,0,-1.111
1,Norm,Trial,19,24,left,right,0,-0.803
1,Norm,Trial,19,25,left,right,0,-0.827
1,Norm,Trial,19,26,right,right,1,1.075
1,Norm,Trial,19,27,left,left,1,1.647
1,Norm,Trial,19,28,right,left,0,-2.855
1,Norm,Trial,19,29,left,left,1,1.347
1,Norm,Trial,19,30,left,right,0,-3.455
1,Norm,Trial,19,31,left,left,1,4.708
1,Norm,Trial,19,32,right,left,0,-0.911
1,Norm,Trial,19,33,right,left,0,-2.274
1,Norm,Trial,19,34,right,left,0,-7.298
1,Norm,Trial,19,35,right,right,1,3.523
1,Norm,Trial,19,36,left,left,1,1.063
1,Norm,Trial,19,37,left,left,1,0.911
1,Norm,Trial,19,38,right,right,1,1.679
1,Norm,Trial,19,39,right,right,1,2.935
1,Norm,Trial,19,40,right,right,1,1.007
1,Norm,Trial,20,1,left,left,1,1.052
1,Norm,Trial,20,2,left,right,0,-0.583
1,Norm,Trial,20,3,left,left,1,2.283
1,Norm,Trial,20,4,left,left,1,0.687
1,Norm,Trial,20,5,left,left,1,1.463
1,Norm,Trial,20,6,left,right,0,-1.502
1,Norm,Trial,20,7,left,left,1,0.754
1,Norm,Trial,20,8,right,right,1,2.726
1,Norm,Trial,20,9,left,left,1,4.11
1,Norm,Trial,20,10,left,left,1,2.207
1,Norm,Trial,20,11,right,left,0,-2.263
1,Norm,Trial,20,12,right,right,1,1.587
1,Norm,Trial,20,13,right,right,1,2.199
1,Norm,Trial,20,14,left,left,1,2.151
1,Norm,Trial,20,15,right,right,1,1.215
1,Norm,Trial,20,16,right,right,1,1.063
1,Norm,Trial,20,17,right,left,0,-0.999
1,Norm,Trial,20,18,right,right,1,0.779
1,Norm,Trial,20,19,right,right,1,0.831
1,Norm,Trial,20,20,right,right,1,0.775
1,Norm,Trial,20,21,right,right,1,0.927
1,Norm,Trial,20,22,left,right,0,-0.863
1,Norm,Trial,20,23,right,right,1,0.939
1,Norm,Trial,20,24,right,right,1,1.079
1,Norm,Trial,20,25,left,right,0,-1.078
1,Norm,Trial,20,26,left,right,0,-0.597
1,Norm,Trial,20,27,left,right,0,-0.739
1,Norm,Trial,20,28,left,right,0,-0.667
1,Norm,Trial,20,29,right,left,0,-1.091
1,Norm,Trial,20,30,right,right,1,1.435
1,Norm,Trial,20,31,left,left,1,1.118
1,Norm,Trial,20,32,left,right,0,-1.798
1,Norm,Trial,20,33,right,right,1,0.834
1,Norm,Trial,20,34,left,left,1,0.791
1,Norm,Trial,20,35,right,left,0,-1.311
1,Norm,Trial,20,36,right,right,1,2.467
1,Norm,Trial,20,37,right,right,1,2.311
1,Norm,Trial,20,38,left,left,1,2.047
1,Norm,Trial,20,39,left,left,1,1.399
1,Norm,Trial,20,40,right,left,0,-4.839
1,Norm,Trial,21,1,right,right,1,1.324
1,Norm,Trial,21,2,left,left,1,1.407
1,Norm,Trial,21,3,right,right,1,1.352
1,Norm,Trial,21,4,left,left,1,0.999
1,Norm,Trial,21,5,right,right,1,1.583
1,Norm,Trial,21,6,right,right,1,0.831
1,Norm,Trial,21,7,left,left,1,1.335
1,Norm,Trial,21,8,left,right,0,-0.631
1,Norm,Trial,21,9,right,left,0,-0.547
1,Norm,Trial,21,10,right,right,1,0.747
1,Norm,Trial,21,11,left,left,1,0.583
1,Norm,Trial,21,12,left,right,0,-0.583
1,Norm,Trial,21,13,left,left,1,0.875
1,Norm,Trial,21,14,right,right,1,1.36
1,Norm,Trial,21,15,right,left,0,-0.711
1,Norm,Trial,21,16,right,right,1,0.539
1,Norm,Trial,21,17,left,left,1,1.023
1,Norm,Trial,21,18,right,right,1,0.831
1,Norm,Trial,21,19,left,left,1,0.928
1,Norm,Trial,21,20,right,right,1,0.735
1,Norm,Trial,21,21,left,left,1,1.542
1,Norm,Trial,21,22,right,right,1,0.67
1,Norm,Trial,21,23,left,left,1,0.774
1,Norm,Trial,21,24,left,right,0,-0.758
1,Norm,Trial,21,25,left,left,1,0.555
1,Norm,Trial,21,26,left,left,1,0.927
1,Norm,Trial,21,27,left,left,1,1.551
1,Norm,Trial,21,28,right,right,1,0.671
1,Norm,Trial,21,29,right,right,1,1.175
1,Norm,Trial,21,30,right,left,0,-1.367
1,Norm,Trial,21,31,left,left,1,2.171
1,Norm,Trial,21,32,left,left,1,1.439
1,Norm,Trial,21,33,right,left,0,-1.159
1,Norm,Trial,21,34,right,right,1,0.699
1,Norm,Trial,21,35,right,right,1,1.408
1,Norm,Trial,21,36,left,left,1,0.815
1,Norm,Trial,21,37,left,left,1,1.647
1,Norm,Trial,21,38,right,right,1,0.951
1,Norm,Trial,21,39,left,left,1,0.855
1,Norm,Trial,21,40,right,left,0,-1.127
1,Norm,Trial,22,1,left,left,1,0.723
1,Norm,Trial,22,2,right,right,1,0.575
1,Norm,Trial,22,3,left,left,1,0.951
1,Norm,Trial,22,4,right,right,1,1.079
1,Norm,Trial,22,5,right,right,1,1.046
1,Norm,Trial,22,6,left,left,1,0.534
1,Norm,Trial,22,7,right,right,1,0.766
1,Norm,Trial,22,8,left,left,1,0.806
1,Norm,Trial,22,9,left,left,1,1.103
1,Norm,Trial,22,10,right,right,1,0.815
1,Norm,Trial,22,11,right,right,1,0.855
1,Norm,Trial,22,12,right,left,0,-0.663
1,Norm,Trial,22,13,left,left,1,0.995
1,Norm,Trial,22,14,right,right,1,0.583
1,Norm,Trial,22,15,right,left,0,-0.639
1,Norm,Trial,22,16,left,right,0,-0.947
1,Norm,Trial,22,17,left,left,1,0.683
1,Norm,Trial,22,18,right,right,1,1.135
1,Norm,Trial,22,19,left,left,1,0.775
1,Norm,Trial,22,20,left,right,0,-0.744
1,Norm,Trial,22,21,left,left,1,1.26
1,Norm,Trial,22,22,right,right,1,1.519
1,Norm,Trial,22,23,left,left,1,0.751
1,Norm,Trial,22,24,left,left,1,0.807
1,Norm,Trial,22,25,left,left,1,1.047
1,Norm,Trial,22,26,right,right,1,1.759
1,Norm,Trial,22,27,right,left,0,-1.143
1,Norm,Trial,22,28,left,left,1,0.611
1,Norm,Trial,22,29,right,right,1,0.614
1,Norm,Trial,22,30,left,left,1,0.815
1,Norm,Trial,22,31,left,left,1,0.702
1,Norm,Trial,22,32,right,right,1,0.671
1,Norm,Trial,22,33,right,right,1,1.503
1,Norm,Trial,22,34,right,right,1,1.17
1,Norm,Trial,22,35,left,right,0,-0.727
1,Norm,Trial,22,36,left,right,0,-2.475
1,Norm,Trial,22,37,right,right,1,1.01
1,Norm,Trial,22,38,left,left,1,0.654
1,Norm,Trial,22,39,right,right,1,0.63
1,Norm,Trial,22,40,right,right,1,1.359
1,Norm,Trial,23,1,right,left,0,-1.371
1,Norm,Trial,23,2,right,right,1,0.523
1,Norm,Trial,23,3,right,left,0,-0.767
1,Norm,Trial,23,4,left,left,1,0.595
1,Norm,Trial,23,5,left,left,1,0.671
1,Norm,Trial,23,6,left,right,0,-0.615
1,Norm,Trial,23,7,left,left,1,0.675
1,Norm,Trial,23,8,left,left,1,0.664
1,Norm,Trial,23,9,right,right,1,0.607
1,Norm,Trial,23,10,left,left,1,0.719
1,Norm,Trial,23,11,left,right,0,-0.72
1,Norm,Trial,23,12,left,left,1,0.516
1,Norm,Trial,23,13,left,left,1,0.815
1,Norm,Trial,23,14,right,right,1,1.127
1,Norm,Trial,23,15,right,left,0,-0.863
1,Norm,Trial,23,16,left,right,0,-0.683
1,Norm,Trial,23,17,right,right,1,0.715
1,Norm,Trial,23,18,left,left,1,0.695
1,Norm,Trial,23,19,right,right,1,0.823
1,Norm,Trial,23,20,left,left,1,0.638
1,Norm,Trial,23,21,left,right,0,-0.703
1,Norm,Trial,23,22,left,left,1,0.682
1,Norm,Trial,23,23,left,left,1,0.831
1,Norm,Trial,23,24,left,left,1,0.832
1,Norm,Trial,23,25,right,left,0,-0.864
1,Norm,Trial,23,26,right,left,0,-0.779
1,Norm,Trial,23,27,right,left,0,-0.707
1,Norm,Trial,23,28,left,left,1,1.139
1,Norm,Trial,23,29,right,right,1,1.103
1,Norm,Trial,23,30,right,right,1,1.311
1,Norm,Trial,23,31,right,right,1,0.806
1,Norm,Trial,23,32,right,left,0,-0.71
1,Norm,Trial,23,33,right,left,0,-1.986
1,Norm,Trial,23,34,left,left,1,1.499
1,Norm,Trial,23,35,right,right,1,0.647
1,Norm,Trial,23,36,right,left,0,-1.191
1,Norm,Trial,23,37,left,left,1,0.603
1,Norm,Trial,23,38,right,left,0,-1.159
1,Norm,Trial,23,39,left,left,1,1.947
1,Norm,Trial,23,40,right,right,1,0.743
1,Norm,Trial,24,1,left,left,1,0.668
1,Norm,Trial,24,2,left,left,1,1.344
1,Norm,Trial,24,3,left,right,0,-0.592
1,Norm,Trial,24,4,left,left,1,0.643
1,Norm,Trial,24,5,right,right,1,0.791
1,Norm,Trial,24,6,right,left,0,-0.583
1,Norm,Trial,24,7,right,right,1,0.667
1,Norm,Trial,24,8,left,left,1,0.88
1,Norm,Trial,24,9,right,right,1,0.959
1,Norm,Trial,24,10,right,left,0,-1.199
1,Norm,Trial,24,11,left,left,1,0.843
1,Norm,Trial,24,12,right,right,1,0.798
1,Norm,Trial,24,13,right,left,0,-1.063
1,Norm,Trial,24,14,left,left,1,1.171
1,Norm,Trial,24,15,left,left,1,0.993
1,Norm,Trial,24,16,left,left,1,1.318
1,Norm,Trial,24,17,left,left,1,1.623
1,Norm,Trial,24,18,right,right,1,1.343
1,Norm,Trial,24,19,right,right,1,1.257
1,Norm,Trial,24,20,right,right,1,1.95
1,Norm,Trial,24,21,right,right,1,1.558
1,Norm,Trial,24,22,right,right,1,1.662
1,Norm,Trial,24,23,left,left,1,0.647
1,Norm,Trial,24,24,left,right,0,-0.991
1,Norm,Trial,24,25,right,left,0,-0.611
1,Norm,Trial,24,26,right,right,1,0.811
1,Norm,Trial,24,27,right,right,1,1.423
1,Norm,Trial,24,28,right,right,1,1.743
1,Norm,Trial,24,29,right,right,1,0.991
1,Norm,Trial,24,30,right,left,0,-1.103
1,Norm,Trial,24,31,left,left,1,0.987
1,Norm,Trial,24,32,right,right,1,1.088
1,Norm,Trial,24,33,right,left,0,-0.872
1,Norm,Trial,24,34,left,left,1,0.723
1,Norm,Trial,24,35,left,left,1,0.999
1,Norm,Trial,24,36,left,left,1,1.215
1,Norm,Trial,24,37,left,left,1,1.151
1,Norm,Trial,24,38,left,left,1,1.391
1,Norm,Trial,24,39,left,left,1,1.182
1,Norm,Trial,24,40,left,left,1,1.207
2,Optim,Time,1,1,left,left,1,1.456
2,Optim,Time,1,2,left,left,1,0.944
2,Optim,Time,1,3,left,left,1,0.842
2,Optim,Time,1,4,right,right,1,1.042
2,Optim,Time,1,5,right,right,1,1.599
2,Optim,Time,1,6,left,left,1,1.146
2,Optim,Time,1,7,left,left,1,1.474
2,Optim,Time,1,8,left,right,0,-1.298
2,Optim,Time,1,9,left,left,1,1.89
2,Optim,Time,1,10,left,left,1,1.581
2,Optim,Time,1,11,left,left,1,2.376
2,Optim,Time,1,12,right,right,1,1.879
2,Optim,Time,1,13,right,right,1,2.697
2,Optim,Time,1,14,right,right,1,2.345
2,Optim,Time,1,15,right,right,1,1.694
2,Optim,Time,1,16,left,left,1,1.173
2,Optim,Time,1,17,right,right,1,1.572
2,Optim,Time,1,18,left,left,1,1.27
2,Optim,Time,1,19,right,right,1,1.769
2,Optim,Time,1,20,right,right,1,1.513
2,Optim,Time,1,21,left,left,1,1.33
2,Optim,Time,1,22,left,left,1,1.686
2,Optim,Time,1,23,left,left,1,1.252
2,Optim,Time,1,24,left,right,0,-1.422
2,Optim,Time,1,25,left,right,0,-2.257
2,Optim,Time,1,26,left,left,1,1.522
2,Optim,Time,1,27,right,left,0,-3.203
2,Optim,Time,1,28,left,left,1,1.261
2,Optim,Time,1,29,right,left,0,-1.719
2,Optim,Time,2,1,left,left,1,1.281
2,Optim,Time,2,2,left,left,1,1.339
2,Optim,Time,2,3,right,right,1,1.432
2,Optim,Time,2,4,right,right,1,1.423
2,Optim,Time,2,5,right,right,1,1.142
2,Optim,Time,2,6,left,left,1,0.973
2,Optim,Time,2,7,left,left,1,1.232
2,Optim,Time,2,8,right,left,0,-2.058
2,Optim,Time,2,9,right,right,1,1.15
2,Optim,Time,2,10,right,left,0,-1.709
2,Optim,Time,2,11,left,left,1,0.92
2,Optim,Time,2,12,left,left,1,0.834
2,Optim,Time,2,13,left,left,1,0.642
2,Optim,Time,2,14,right,right,1,1.3
2,Optim,Time,2,15,left,right,0,-1.544
2,Optim,Time,2,16,right,right,1,2.046
2,Optim,Time,2,17,left,left,1,1.029
2,Optim,Time,2,18,right,left,0,-2.793
2,Optim,Time,2,19,right,left,0,-1.6
2,Optim,Time,2,20,left,left,1,1.16
2,Optim,Time,2,21,left,left,1,0.968
2,Optim,Time,2,22,left,left,1,1.212
2,Optim,Time,2,23,left,left,1,1.06
2,Optim,Time,2,24,right,right,1,1.137
2,Optim,Time,2,25,left,right,0,-1.799
2,Optim,Time,2,26,left,left,1,1.421
2,Optim,Time,2,27,right,right,1,1.596
2,Optim,Time,2,28,left,left,1,1.335
2,Optim,Time,2,29,left,left,1,1.307
2,Optim,Time,2,30,left,left,1,1.191
2,Optim,Time,2,31,left,left,1,1.648
2,Optim,Time,2,32,left,left,1,1.26
2,Optim,Time,2,33,left,left,1,1.383
2,Optim,Time,3,1,right,right,1,1.726
2,Optim,Time,3,2,left,left,1,1.061
2,Optim,Time,3,3,left,left,1,1.138
2,Optim,Time,3,4,right,right,1,1.274
2,Optim,Time,3,5,left,left,1,1.061
2,Optim,Time,3,6,right,right,1,1.098
2,Optim,Time,3,7,right,right,1,1.192
2,Optim,Time,3,8,left,left,1,1.872
2,Optim,Time,3,9,left,left,1,1.275
2,Optim,Time,3,10,left,left,1,1.046
2,Optim,Time,3,11,left,left,1,1.003
2,Optim,Time,3,12,left,left,1,0.951
2,Optim,Time,3,13,left,left,1,0.849
2,Optim,Time,3,14,right,right,1,1.241
2,Optim,Time,3,15,right,right,1,1.323
2,Optim,Time,3,16,left,left,1,1.071
2,Optim,Time,3,17,left,right,0,-1.197
2,Optim,Time,3,18,left,left,1,0.762
2,Optim,Time,3,19,right,left,0,-1.064
2,Optim,Time,3,20,left,left,1,0.803
2,Optim,Time,3,21,right,left,0,-0.857
2,Optim,Time,3,22,left,left,1,1.006
2,Optim,Time,3,23,left,left,1,1.354
2,Optim,Time,3,24,right,left,0,-2.047
2,Optim,Time,3,25,right,left,0,-1.707
2,Optim,Time,3,26,right,left,0,-2.854
2,Optim,Time,3,27,left,left,1,0.87
2,Optim,Time,3,28,right,right,1,1.782
2,Optim,Time,3,29,left,left,1,0.87
2,Optim,Time,3,30,left,left,1,1.029
2,Optim,Time,3,31,left,left,1,0.706
2,Optim,Time,3,32,right,right,1,1.022
2,Optim,Time,3,33,left,left,1,0.579
2,Optim,Time,3,34,left,left,1,0.684
2,Optim,Time,3,35,left,left,1,0.8
2,Optim,Time,3,36,left,left,1,0.79
2,Optim,Time,3,37,right,left,0,-2.421
2,Optim,Time,4,1,right,right,1,1.767
2,Optim,Time,4,2,left,left,1,1.103
2,Optim,Time,4,3,right,right,1,2.461
2,Optim,Time,4,4,right,right,1,1.151
2,Optim,Time,4,5,right,left,0,-2.854
2,Optim,Time,4,6,left,left,1,1.03
2,Optim,Time,4,7,right,right,1,1.364
2,Optim,Time,4,8,left,left,1,1.025
2,Optim,Time,4,9,left,left,1,1.389
2,Optim,Time,4,10,right,right,1,1.803
2,Optim,Time,4,11,right,right,1,1.052
2,Optim,Time,4,12,right,right,1,1.777
2,Optim,Time,4,13,left,left,1,0.977
2,Optim,Time,4,14,right,right,1,1.436
2,Optim,Time,4,15,right,right,1,1.194
2,Optim,Time,4,16,right,right,1,1.243
2,Optim,Time,4,17,left,left,1,1.045
2,Optim,Time,4,18,right,right,1,2.714
2,Optim,Time,4,19,left,left,1,1.13
2,Optim,Time,4,20,right,right,1,0.849
2,Optim,Time,4,21,right,right,1,1.177
2,Optim,Time,4,22,left,left,1,0.969
2,Optim,Time,4,23,right,right,1,1.069
2,Optim,Time,4,24,right,right,1,0.986
2,Optim,Time,4,25,left,right,0,-2.886
2,Optim,Time,4,26,right,right,1,2.543
2,Optim,Time,4,27,right,right,1,1.603
2,Optim,Time,4,28,right,right,1,1.03
2,Optim,Time,4,29,right,left,0,-1.051
2,Optim,Time,4,30,left,left,1,0.821
2,Optim,Time,4,31,right,right,1,2.18
2,Optim,Time,4,32,left,right,0,-2.718
2,Optim,Time,5,1,right,right,1,1.365
2,Optim,Time,5,2,left,left,1,0.986
2,Optim,Time,5,3,left,left,1,1.245
2,Optim,Time,5,4,right,right,1,1.071
2,Optim,Time,5,5,left,left,1,1.069
2,Optim,Time,5,6,right,right,1,0.962
2,Optim,Time,5,7,right,right,1,0.885
2,Optim,Time,5,8,left,left,1,1.477
2,Optim,Time,5,9,left,left,1,1.069
2,Optim,Time,5,10,left,left,1,1.387
2,Optim,Time,5,11,right,right,1,1.905
2,Optim,Time,5,12,left,left,1,1.004
2,Optim,Time,5,13,right,right,1,1.616
2,Optim,Time,5,14,right,right,1,1.211
2,Optim,Time,5,15,right,right,1,1.828
2,Optim,Time,5,16,left,left,1,1.102
2,Optim,Time,5,17,right,right,1,1.012
2,Optim,Time,5,18,right,right,1,0.816
2,Optim,Time,5,19,right,left,0,-2.847
2,Optim,Time,5,20,right,right,1,1.303
2,Optim,Time,5,21,right,right,1,1.419
2,Optim,Time,5,22,left,left,1,1.425
2,Optim,Time,5,23,left,left,1,1.248
2,Optim,Time,5,24,left,left,1,2.45
2,Optim,Time,5,25,right,right,1,1.378
2,Optim,Time,5,26,right,right,1,1.44
2,Optim,Time,5,27,left,left,1,1.215
2,Optim,Time,5,28,left,left,1,1.272
2,Optim,Time,5,29,left,left,1,1.403
2,Optim,Time,5,30,right,right,1,1.65
2,Optim,Time,5,31,right,right,1,1.925
2,Optim,Time,5,32,left,left,1,1.521
2,Optim,Time,5,33,left,left,1,1.546
2,Optim,Time,5,34,left,left,1,1.084
2,Optim,Time,6,1,right,right,1,2.531
2,Optim,Time,6,2,right,left,0,-2.142
2,Optim,Time,6,3,left,left,1,1.036
2,Optim,Time,6,4,left,left,1,1.473
2,Optim,Time,6,5,left,left,1,1.321
2,Optim,Time,6,6,right,right,1,1.525
2,Optim,Time,6,7,left,left,1,0.998
2,Optim,Time,6,8,left,right,0,-1.602
2,Optim,Time,6,9,right,right,1,1.322
2,Optim,Time,6,10,right,right,1,1.662
2,Optim,Time,6,11,right,right,1,1.339
2,Optim,Time,6,12,right,right,1,1.047
2,Optim,Time,6,13,right,right,1,1.004
2,Optim,Time,6,14,left,left,1,1
2,Optim,Time,6,15,left,right,0,-1.076
2,Optim,Time,6,16,left,right,0,-1.143
2,Optim,Time,6,17,right,right,1,2.323
2,Optim,Time,6,18,right,right,1,2.641
2,Optim,Time,6,19,left,left,1,1.247
2,Optim,Time,6,20,right,right,1,1.097
2,Optim,Time,6,21,left,left,1,1.024
2,Optim,Time,6,22,right,right,1,1.372
2,Optim,Time,6,23,left,left,1,0.889
2,Optim,Time,6,24,right,right,1,1.041
2,Optim,Time,6,25,left,left,1,1.198
2,Optim,Time,6,26,left,left,1,1.895
2,Optim,Time,6,27,right,right,1,1.258
2,Optim,Time,6,28,right,right,1,1.22
2,Optim,Time,6,29,left,left,1,1.062
2,Optim,Time,6,30,right,right,1,1.139
2,Optim,Time,6,31,right,right,1,2.115
2,Optim,Time,6,32,right,right,1,1.331
2,Optim,Time,6,33,right,right,1,1.448
2,Optim,Time,7,1,left,left,1,1.222
2,Optim,Time,7,2,right,right,1,1.28
2,Optim,Time,7,3,right,right,1,1.395
2,Optim,Time,7,4,left,left,1,1.249
2,Optim,Time,7,5,right,right,1,1.188
2,Optim,Time,7,6,left,left,1,1.508
2,Optim,Time,7,7,right,right,1,1.221
2,Optim,Time,7,8,right,right,1,2.294
2,Optim,Time,7,9,left,left,1,1.084
2,Optim,Time,7,10,right,right,1,1.49
2,Optim,Time,7,11,left,right,0,-1.578
2,Optim,Time,7,12,left,left,1,2.01
2,Optim,Time,7,13,left,left,1,1.68
2,Optim,Time,7,14,right,right,1,1.653
2,Optim,Time,7,15,left,left,1,1.433
2,Optim,Time,7,16,left,left,1,1.408
2,Optim,Time,7,17,right,right,1,1.238
2,Optim,Time,7,18,right,right,1,1.544
2,Optim,Time,7,19,right,right,1,2.081
2,Optim,Time,7,20,left,left,1,1.657
2,Optim,Time,7,21,right,right,1,2.445
2,Optim,Time,7,22,left,left,1,1.069
2,Optim,Time,7,23,right,left,0,-1.922
2,Optim,Time,7,24,left,left,1,1.043
2,Optim,Time,7,25,right,right,1,1.376
2,Optim,Time,7,26,right,right,1,1.677
2,Optim,Time,7,27,right,right,1,1.427
2,Optim,Time,7,28,left,left,1,1.369
2,Optim,Time,7,29,right,right,1,1.414
2,Optim,Time,7,30,right,right,1,1.348
2,Optim,Time,7,31,right,right,1,1.273
2,Optim,Time,7,32,left,left,1,1.22
2,Optim,Time,8,1,right,right,1,1.231
2,Optim,Time,8,2,right,right,1,1.224
2,Optim,Time,8,3,left,left,1,1.353
2,Optim,Time,8,4,left,left,1,1.35
2,Optim,Time,8,5,right,right,1,1.107
2,Optim,Time,8,6,left,left,1,1.266
2,Optim,Time,8,7,left,left,1,1.484
2,Optim,Time,8,8,right,left,0,-1.132
2,Optim,Time,8,9,right,left,0,-3.536
2,Optim,Time,8,10,right,left,0,-2.554
2,Optim,Time,8,11,left,left,1,1.282
2,Optim,Time,8,12,right,left,0,-1.341
2,Optim,Time,8,13,left,left,1,1.887
2,Optim,Time,8,14,right,left,0,-3.026
2,Optim,Time,8,15,left,left,1,2.263
2,Optim,Time,8,16,left,left,1,1.907
2,Optim,Time,8,17,right,right,1,1.583
2,Optim,Time,8,18,left,left,1,1.249
2,Optim,Time,8,19,right,right,1,2.02
2,Optim,Time,8,20,left,left,1,4.017
2,Optim,Time,8,21,right,left,0,-2.626
2,Optim,Time,8,22,left,left,1,1.437
2,Optim,Time,8,23,right,left,0,-1.811
2,Optim,Time,8,24,right,right,1,2.306
2,Optim,Time,8,25,left,left,1,2.615
2,Optim,Time,9,1,left,left,1,1.125
2,Optim,Time,9,2,right,right,1,1.365
2,Optim,Time,9,3,left,left,1,1.842
2,Optim,Time,9,4,right,right,1,1.483
2,Optim,Time,9,5,left,left,1,2.003
2,Optim,Time,9,6,left,left,1,1.584
2,Optim,Time,9,7,left,left,1,1.386
2,Optim,Time,9,8,right,right,1,1.544
2,Optim,Time,9,9,left,left,1,2.746
2,Optim,Time,9,10,right,right,1,1.075
2,Optim,Time,9,11,right,right,1,3.176
2,Optim,Time,9,12,left,left,1,3.46
2,Optim,Time,9,13,right,left,0,-2.207
2,Optim,Time,9,14,left,left,1,1.494
2,Optim,Time,9,15,left,left,1,1.959
2,Optim,Time,9,16,left,left,1,1.971
2,Optim,Time,9,17,right,right,1,1.328
2,Optim,Time,9,18,right,right,1,1.445
2,Optim,Time,9,19,right,right,1,2.835
2,Optim,Time,9,20,left,right,0,-2.182
2,Optim,Time,9,21,right,right,1,2.733
2,Optim,Time,9,22,right,right,1,2.541
2,Optim,Time,9,23,left,left,1,1.64
2,Optim,Time,9,24,right,right,1,1.572
2,Optim,Time,9,25,left,left,1,2.15
2,Optim,Time,9,26,right,left,0,-2.504
2,Optim,Time,10,1,left,left,1,1.483
2,Optim,Time,10,2,left,left,1,1.339
2,Optim,Time,10,3,right,left,0,-2.672
2,Optim,Time,10,4,right,right,1,2.979
2,Optim,Time,10,5,left,right,0,-1.986
2,Optim,Time,10,6,right,right,1,3.394
2,Optim,Time,10,7,right,right,1,2.212
2,Optim,Time,10,8,right,right,1,1.255
2,Optim,Time,10,9,right,right,1,1.401
2,Optim,Time,10,10,left,left,1,1.655
2,Optim,Time,10,11,right,left,0,-3.252
2,Optim,Time,10,12,right,right,1,2.574
2,Optim,Time,10,13,right,right,1,1.795
2,Optim,Time,10,14,left,left,1,1.483
2,Optim,Time,10,15,left,left,1,2.107
2,Optim,Time,10,16,left,left,1,1.364
2,Optim,Time,10,17,right,left,0,-2.161
2,Optim,Time,10,18,right,left,0,-2.104
2,Optim,Time,10,19,right,right,1,2.796
2,Optim,Time,10,20,left,left,1,1.685
2,Optim,Time,10,21,left,left,1,1.395
2,Optim,Time,10,22,left,left,1,1.169
2,Optim,Time,10,23,right,right,1,2.129
2,Optim,Time,10,24,left,left,1,1.706
2,Optim,Time,11,1,right,right,1,1.958
2,Optim,Time,11,2,right,right,1,2.474
2,Optim,Time,11,3,left,left,1,2.475
2,Optim,Time,11,4,left,left,1,2.029
2,Optim,Time,11,5,right,right,1,0.882
2,Optim,Time,11,6,left,left,1,0.667
2,Optim,Time,11,7,right,right,1,2.03
2,Optim,Time,11,8,right,right,1,1.157
2,Optim,Time,11,9,right,right,1,0.821
2,Optim,Time,11,10,right,right,1,1.46
2,Optim,Time,11,11,left,left,1,1.236
2,Optim,Time,11,12,left,left,1,2.238
2,Optim,Time,11,13,left,left,1,1.745
2,Optim,Time,11,14,left,left,1,3.368
2,Optim,Time,11,15,right,right,1,1.161
2,Optim,Time,11,16,left,left,1,1.272
2,Optim,Time,11,17,right,right,1,1.091
2,Optim,Time,11,18,left,left,1,1.345
2,Optim,Time,11,19,right,left,0,-2.566
2,Optim,Time,11,20,left,left,1,1.471
2,Optim,Time,11,21,left,left,1,2.855
2,Optim,Time,11,22,left,left,1,1.568
2,Optim,Time,11,23,left,left,1,1.138
2,Optim,Time,11,24,right,right,1,0.778
2,Optim,Time,11,25,left,left,1,0.944
2,Optim,Time,11,26,left,left,1,0.722
2,Optim,Time,11,27,right,right,1,0.895
2,Optim,Time,11,28,left,right,0,-3.616
2,Optim,Time,11,29,left,left,1,2.004
2,Optim,Time,12,1,left,left,1,1.484
2,Optim,Time,12,2,right,right,1,2.692
2,Optim,Time,12,3,right,right,1,2.092
2,Optim,Time,12,4,left,left,1,1.148
2,Optim,Time,12,5,left,left,1,1.195
2,Optim,Time,12,6,left,left,1,1.884
2,Optim,Time,12,7,right,right,1,1.438
2,Optim,Time,12,8,left,left,1,1.158
2,Optim,Time,12,9,right,right,1,1.341
2,Optim,Time,12,10,left,left,1,1.225
2,Optim,Time,12,11,left,left,1,0.906
2,Optim,Time,12,12,left,left,1,1.724
2,Optim,Time,12,13,right,right,1,1.914
2,Optim,Time,12,14,right,right,1,1.614
2,Optim,Time,12,15,right,right,1,0.897
2,Optim,Time,12,16,left,left,1,1.171
2,Optim,Time,12,17,left,left,1,1.107
2,Optim,Time,12,18,left,left,1,2.026
2,Optim,Time,12,19,right,right,1,2.584
2,Optim,Time,12,20,right,left,0,-2.244
2,Optim,Time,12,21,left,left,1,2.253
2,Optim,Time,12,22,right,left,0,-5.305
2,Optim,Time,12,23,left,left,1,1.064
2,Optim,Time,12,24,left,left,1,1.526
2,Optim,Time,12,25,right,left,0,-2.335
2,Optim,Time,12,26,left,left,1,1.946
2,Optim,Time,12,27,left,left,1,0.853
2,Optim,Time,12,28,right,right,1,3.949
2,Optim,Time,13,1,left,left,1,1.83
2,Optim,Time,13,2,left,left,1,1.007
2,Optim,Time,13,3,left,left,1,1.483
2,Optim,Time,13,4,right,right,1,1.908
2,Optim,Time,13,5,left,left,1,1.471
2,Optim,Time,13,6,left,left,1,2.815
2,Optim,Time,13,7,right,right,1,1.953
2,Optim,Time,13,8,left,left,1,1.158
2,Optim,Time,13,9,left,left,1,0.726
2,Optim,Time,13,10,left,left,1,0.762
2,Optim,Time,13,11,left,left,1,0.832
2,Optim,Time,13,12,left,left,1,1.071
2,Optim,Time,13,13,right,right,1,1.749
2,Optim,Time,13,14,right,right,1,1.892
2,Optim,Time,13,15,right,right,1,4.974
2,Optim,Time,13,16,left,left,1,1.432
2,Optim,Time,13,17,right,right,1,1.207
2,Optim,Time,13,18,left,left,1,0.657
2,Optim,Time,13,19,left,left,1,0.859
2,Optim,Time,13,20,right,right,1,1.819
2,Optim,Time,13,21,right,right,1,1.316
2,Optim,Time,13,22,right,right,1,1.504
2,Optim,Time,13,23,left,left,1,0.913
2,Optim,Time,13,24,right,right,1,0.659
2,Optim,Time,13,25,left,right,0,-1.582
2,Optim,Time,13,26,right,right,1,0.926
2,Optim,Time,13,27,right,right,1,0.952
2,Optim,Time,13,28,left,left,1,1.362
2,Optim,Time,13,29,right,right,1,1.248
2,Optim,Time,13,30,right,right,1,1.354
2,Optim,Time,13,31,left,left,1,1.095
2,Optim,Time,13,32,right,right,1,1.525
2,Optim,Time,13,33,right,right,1,2.758
2,Optim,Time,14,1,right,right,1,1.367
2,Optim,Time,14,2,right,right,1,1.172
2,Optim,Time,14,3,right,left,0,-3.229
2,Optim,Time,14,4,right,right,1,0.911
2,Optim,Time,14,5,right,right,1,0.849
2,Optim,Time,14,6,left,left,1,0.977
2,Optim,Time,14,7,left,left,1,1.916
2,Optim,Time,14,8,right,right,1,1.11
2,Optim,Time,14,9,right,right,1,1.365
2,Optim,Time,14,10,right,right,1,2.37
2,Optim,Time,14,11,left,left,1,1.249
2,Optim,Time,14,12,left,left,1,1.54
2,Optim,Time,14,13,left,left,1,1.189
2,Optim,Time,14,14,right,right,1,1.398
2,Optim,Time,14,15,right,right,1,1.076
2,Optim,Time,14,16,left,left,1,1.554
2,Optim,Time,14,17,right,right,1,2.132
2,Optim,Time,14,18,right,right,1,1.733
2,Optim,Time,14,19,right,right,1,1.747
2,Optim,Time,14,20,right,right,1,1.122
2,Optim,Time,14,21,right,left,0,-1.081
2,Optim,Time,14,22,left,left,1,0.917
2,Optim,Time,14,23,left,left,1,1.935
2,Optim,Time,14,24,right,right,1,3.123
2,Optim,Time,14,25,left,left,1,2.517
2,Optim,Time,14,26,right,right,1,1.896
2,Optim,Time,14,27,right,right,1,1.842
2,Optim,Time,14,28,left,left,1,0.844
2,Optim,Time,14,29,right,right,1,1.291
2,Optim,Time,14,30,left,left,1,1.67
2,Optim,Time,15,1,right,right,1,1.191
2,Optim,Time,15,2,right,right,1,2.16
2,Optim,Time,15,3,left,left,1,0.873
2,Optim,Time,15,4,right,right,1,2.05
2,Optim,Time,15,5,left,left,1,0.904
2,Optim,Time,15,6,left,left,1,0.73
2,Optim,Time,15,7,right,right,1,2.326
2,Optim,Time,15,8,left,left,1,0.676
2,Optim,Time,15,9,right,right,1,1.296
2,Optim,Time,15,10,right,right,1,1.996
2,Optim,Time,15,11,left,left,1,0.985
2,Optim,Time,15,12,left,left,1,0.869
2,Optim,Time,15,13,left,left,1,1.485
2,Optim,Time,15,14,left,left,1,1.053
2,Optim,Time,15,15,right,right,1,4.931
2,Optim,Time,15,16,right,left,0,-1.996
2,Optim,Time,15,17,left,left,1,1.063
2,Optim,Time,15,18,left,left,1,0.979
2,Optim,Time,15,19,right,right,1,1.614
2,Optim,Time,15,20,right,left,0,-2.002
2,Optim,Time,15,21,left,left,1,0.877
2,Optim,Time,15,22,right,right,1,0.909
2,Optim,Time,15,23,left,left,1,0.718
2,Optim,Time,15,24,right,left,0,-2.867
2,Optim,Time,15,25,right,right,1,1.155
2,Optim,Time,15,26,left,left,1,0.731
2,Optim,Time,15,27,right,right,1,1.32
2,Optim,Time,15,28,left,left,1,0.652
2,Optim,Time,15,29,right,right,1,1.679
2,Optim,Time,15,30,right,right,1,2.172
2,Optim,Time,15,31,left,left,1,1.054
2,Optim,Time,15,32,right,right,1,0.875
2,Optim,Time,16,1,left,left,1,1.177
2,Optim,Time,16,2,right,right,1,1.666
2,Optim,Time,16,3,left,left,1,0.718
2,Optim,Time,16,4,left,left,1,0.867
2,Optim,Time,16,5,left,left,1,0.803
2,Optim,Time,16,6,right,right,1,1.202
2,Optim,Time,16,7,right,right,1,0.995
2,Optim,Time,16,8,left,left,1,0.927
2,Optim,Time,16,9,right,right,1,1.929
2,Optim,Time,16,10,left,left,1,0.708
2,Optim,Time,16,11,right,right,1,1.145
2,Optim,Time,16,12,right,right,1,0.704
2,Optim,Time,16,13,right,right,1,2.629
2,Optim,Time,16,14,left,left,1,0.786
2,Optim,Time,16,15,left,left,1,1.872
2,Optim,Time,16,16,right,right,1,1.883
2,Optim,Time,16,17,left,left,1,0.637
2,Optim,Time,16,18,right,right,1,3.56
2,Optim,Time,16,19,right,left,0,-2.157
2,Optim,Time,16,20,right,right,1,2.915
2,Optim,Time,16,21,left,left,1,1.368
2,Optim,Time,16,22,left,left,1,1.581
2,Optim,Time,16,23,right,right,1,2.624
2,Optim,Time,16,24,right,right,1,1.709
2,Optim,Time,16,25,left,right,0,-3.955
2,Optim,Time,16,26,left,left,1,0.752
2,Optim,Time,16,27,left,left,1,1.413
2,Optim,Time,16,28,right,right,1,1.14
2,Optim,Time,16,29,right,right,1,1.436
2,Optim,Time,16,30,right,right,1,2.355
2,Optim,Time,17,1,left,left,1,1.743
2,Optim,Time,17,2,right,right,1,1.038
2,Optim,Time,17,3,right,right,1,3.083
2,Optim,Time,17,4,left,left,1,0.9
2,Optim,Time,17,5,right,right,1,1.773
2,Optim,Time,17,6,left,left,1,0.805
2,Optim,Time,17,7,left,left,1,0.82
2,Optim,Time,17,8,right,right,1,3.099
2,Optim,Time,17,9,left,left,1,1.228
2,Optim,Time,17,10,right,right,1,1.214
2,Optim,Time,17,11,left,left,1,1.039
2,Optim,Time,17,12,right,right,1,2.508
2,Optim,Time,17,13,left,left,1,0.974
2,Optim,Time,17,14,left,left,1,1.169
2,Optim,Time,17,15,left,left,1,1.753
2,Optim,Time,17,16,right,right,1,1.169
2,Optim,Time,17,17,right,right,1,2.249
2,Optim,Time,17,18,left,left,1,1.116
2,Optim,Time,17,19,right,right,1,1.771
2,Optim,Time,17,20,right,right,1,1.418
2,Optim,Time,17,21,right,right,1,1.728
2,Optim,Time,17,22,left,left,1,1.279
2,Optim,Time,17,23,left,left,1,1.906
2,Optim,Time,17,24,left,left,1,3.469
2,Optim,Time,17,25,right,right,1,0.952
2,Optim,Time,17,26,right,right,1,2.203
2,Optim,Time,17,27,left,left,1,1.79
2,Optim,Time,17,28,left,left,1,1.862
2,Optim,Time,17,29,left,left,1,2.184
2,Optim,Time,17,30,right,right,1,1.931
2,Optim,Time,18,1,right,right,1,1.39
2,Optim,Time,18,2,right,right,1,2.467
2,Optim,Time,18,3,left,left,1,1.037
2,Optim,Time,18,4,left,left,1,1.81
2,Optim,Time,18,5,right,right,1,2.283
2,Optim,Time,18,6,left,left,1,1.551
2,Optim,Time,18,7,left,left,1,1.137
2,Optim,Time,18,8,right,right,1,0.737
2,Optim,Time,18,9,right,right,1,2.173
2,Optim,Time,18,10,left,left,1,1.071
2,Optim,Time,18,11,left,left,1,2.741
2,Optim,Time,18,12,left,left,1,1.774
2,Optim,Time,18,13,right,right,1,1.149
2,Optim,Time,18,14,right,right,1,1.045
2,Optim,Time,18,15,right,right,1,2.577
2,Optim,Time,18,16,left,left,1,0.957
2,Optim,Time,18,17,left,left,1,1.776
2,Optim,Time,18,18,left,left,1,1.464
2,Optim,Time,18,19,left,left,1,0.855
2,Optim,Time,18,20,left,left,1,1.151
2,Optim,Time,18,21,left,left,1,5.895
2,Optim,Time,18,22,right,right,1,1.448
2,Optim,Time,18,23,right,right,1,1.823
2,Optim,Time,18,24,left,left,1,1.528
2,Optim,Time,18,25,left,left,1,1.033
2,Optim,Time,18,26,right,right,1,1.214
2,Optim,Time,18,27,left,left,1,1.231
2,Optim,Time,18,28,left,left,1,1.265
2,Optim,Time,18,29,right,right,1,1.155
2,Optim,Time,18,30,right,right,1,1.235
2,Optim,Time,19,1,left,left,1,1.168
2,Optim,Time,19,2,right,right,1,1.848
2,Optim,Time,19,3,right,right,1,0.809
2,Optim,Time,19,4,left,left,1,0.952
2,Optim,Time,19,5,left,left,1,0.683
2,Optim,Time,19,6,left,left,1,0.702
2,Optim,Time,19,7,right,right,1,1.083
2,Optim,Time,19,8,right,right,1,2.793
2,Optim,Time,19,9,left,left,1,1.091
2,Optim,Time,19,10,right,right,1,1.177
2,Optim,Time,19,11,right,right,1,0.753
2,Optim,Time,19,12,right,right,1,2.758
2,Optim,Time,19,13,right,right,1,2.847
2,Optim,Time,19,14,right,right,1,2.066
2,Optim,Time,19,15,left,left,1,0.841
2,Optim,Time,19,16,left,left,1,1.816
2,Optim,Time,19,17,left,left,1,2.089
2,Optim,Time,19,18,left,left,1,1.153
2,Optim,Time,19,19,right,right,1,1.969
2,Optim,Time,19,20,left,left,1,0.813
2,Optim,Time,19,21,left,left,1,1.141
2,Optim,Time,19,22,left,left,1,0.797
2,Optim,Time,19,23,right,right,1,1.155
2,Optim,Time,19,24,left,left,1,0.883
2,Optim,Time,19,25,left,left,1,0.852
2,Optim,Time,19,26,left,left,1,1.148
2,Optim,Time,19,27,left,left,1,0.844
2,Optim,Time,19,28,left,left,1,2.372
2,Optim,Time,19,29,left,left,1,1.595
2,Optim,Time,19,30,left,left,1,2.118
2,Optim,Time,19,31,right,left,0,-1.414
2,Optim,Time,19,32,left,left,1,1.889
2,Optim,Time,19,33,left,left,1,1.724
2,Optim,Time,20,1,right,right,1,3.201
2,Optim,Time,20,2,right,left,0,-2.245
2,Optim,Time,20,3,left,left,1,0.918
2,Optim,Time,20,4,right,right,1,2.071
2,Optim,Time,20,5,right,right,1,1.166
2,Optim,Time,20,6,left,left,1,0.83
2,Optim,Time,20,7,left,left,1,1.966
2,Optim,Time,20,8,left,left,1,1.387
2,Optim,Time,20,9,right,right,1,1.544
2,Optim,Time,20,10,left,left,1,0.938
2,Optim,Time,20,11,right,left,0,-2.316
2,Optim,Time,20,12,left,left,1,0.742
2,Optim,Time,20,13,right,right,1,1.115
2,Optim,Time,20,14,right,right,1,0.826
2,Optim,Time,20,15,right,right,1,2.665
2,Optim,Time,20,16,left,left,1,0.911
2,Optim,Time,20,17,left,left,1,0.689
2,Optim,Time,20,18,right,right,1,2.965
2,Optim,Time,20,19,right,right,1,1.355
2,Optim,Time,20,20,left,left,1,0.808
2,Optim,Time,20,21,left,left,1,0.759
2,Optim,Time,20,22,left,left,1,1.501
2,Optim,Time,20,23,right,right,1,0.798
2,Optim,Time,20,24,right,right,1,0.876
2,Optim,Time,20,25,right,right,1,0.869
2,Optim,Time,20,26,right,right,1,0.822
2,Optim,Time,20,27,left,left,1,0.861
2,Optim,Time,20,28,right,right,1,0.997
2,Optim,Time,20,29,left,left,1,0.809
2,Optim,Time,20,30,left,left,1,2.424
2,Optim,Time,20,31,right,right,1,2.216
2,Optim,Time,20,32,right,right,1,3.163
2,Optim,Time,21,1,left,left,1,1.119
2,Optim,Time,21,2,right,right,1,1.054
2,Optim,Time,21,3,left,left,1,0.779
2,Optim,Time,21,4,left,left,1,0.977
2,Optim,Time,21,5,left,left,1,0.66
2,Optim,Time,21,6,left,left,1,2.184
2,Optim,Time,21,7,left,left,1,1.498
2,Optim,Time,21,8,left,left,1,2.547
2,Optim,Time,21,9,right,right,1,2.19
2,Optim,Time,21,10,left,left,1,0.993
2,Optim,Time,21,11,right,right,1,0.917
2,Optim,Time,21,12,right,right,1,0.934
2,Optim,Time,21,13,right,right,1,2.168
2,Optim,Time,21,14,left,left,1,1.69
2,Optim,Time,21,15,right,right,1,1
2,Optim,Time,21,16,right,right,1,1.54
2,Optim,Time,21,17,right,right,1,1.54
2,Optim,Time,21,18,left,left,1,1.079
2,Optim,Time,21,19,right,right,1,1.3
2,Optim,Time,21,20,right,right,1,2.039
2,Optim,Time,21,21,left,left,1,1.302
2,Optim,Time,21,22,right,right,1,1.137
2,Optim,Time,21,23,right,right,1,0.825
2,Optim,Time,21,24,left,left,1,0.664
2,Optim,Time,21,25,left,left,1,4.884
2,Optim,Time,21,26,left,left,1,1.091
2,Optim,Time,21,27,right,right,1,0.873
2,Optim,Time,21,28,right,right,1,1.705
2,Optim,Time,21,29,right,right,1,0.983
2,Optim,Time,21,30,left,left,1,0.851
2,Optim,Time,21,31,left,left,1,1.147
2,Optim,Time,21,32,right,right,1,0.987
2,Optim,Time,21,33,right,right,1,1.103
2,Optim,Time,21,34,left,left,1,1.485
2,Optim,Time,22,1,left,left,1,1.005
2,Optim,Time,22,2,left,left,1,0.905
2,Optim,Time,22,3,left,left,1,0.682
2,Optim,Time,22,4,left,left,1,0.87
2,Optim,Time,22,5,left,left,1,1.59
2,Optim,Time,22,6,right,right,1,1.201
2,Optim,Time,22,7,right,right,1,1.33
2,Optim,Time,22,8,left,left,1,1.175
2,Optim,Time,22,9,right,right,1,1.439
2,Optim,Time,22,10,left,left,1,1.086
2,Optim,Time,22,11,right,right,1,1.94
2,Optim,Time,22,12,left,left,1,0.92
2,Optim,Time,22,13,left,left,1,0.985
2,Optim,Time,22,14,right,right,1,0.757
2,Optim,Time,22,15,left,left,1,0.931
2,Optim,Time,22,16,left,left,1,1.101
2,Optim,Time,22,17,left,left,1,2.147
2,Optim,Time,22,18,right,right,1,3.396
2,Optim,Time,22,19,left,left,1,0.918
2,Optim,Time,22,20,left,left,1,1.822
2,Optim,Time,22,21,left,left,1,1.039
2,Optim,Time,22,22,left,left,1,1.268
2,Optim,Time,22,23,right,right,1,1.286
2,Optim,Time,22,24,right,right,1,1.722
2,Optim,Time,22,25,right,right,1,1.864
2,Optim,Time,22,26,right,right,1,0.81
2,Optim,Time,22,27,right,right,1,2.993
2,Optim,Time,22,28,right,right,1,0.976
2,Optim,Time,22,29,right,right,1,2.835
2,Optim,Time,22,30,right,right,1,2.205
2,Optim,Time,22,31,left,left,1,1.304
2,Optim,Time,22,32,left,left,1,1.732
2,Optim,Time,22,33,left,left,1,3.003
2,Optim,Time,23,1,right,right,1,1.767
2,Optim,Time,23,2,right,left,0,-2.438
2,Optim,Time,23,3,left,left,1,1.284
2,Optim,Time,23,4,right,right,1,0.967
2,Optim,Time,23,5,left,left,1,0.754
2,Optim,Time,23,6,right,right,1,2.311
2,Optim,Time,23,7,right,right,1,1.357
2,Optim,Time,23,8,right,right,1,1.122
2,Optim,Time,23,9,left,left,1,0.897
2,Optim,Time,23,10,right,right,1,1.434
2,Optim,Time,23,11,right,right,1,0.961
2,Optim,Time,23,12,right,right,1,0.956
2,Optim,Time,23,13,left,left,1,0.967
2,Optim,Time,23,14,right,right,1,1.162
2,Optim,Time,23,15,left,left,1,1.37
2,Optim,Time,23,16,left,left,1,0.983
2,Optim,Time,23,17,left,left,1,0.954
2,Optim,Time,23,18,right,right,1,0.917
2,Optim,Time,23,19,left,left,1,0.807
2,Optim,Time,23,20,left,left,1,2.286
2,Optim,Time,23,21,right,right,1,0.954
2,Optim,Time,23,22,right,right,1,1.485
2,Optim,Time,23,23,right,right,1,1.157
2,Optim,Time,23,24,right,right,1,1.092
2,Optim,Time,23,25,right,right,1,0.939
2,Optim,Time,23,26,right,right,1,0.949
2,Optim,Time,23,27,left,left,1,2.064
2,Optim,Time,23,28,right,right,1,1.263
2,Optim,Time,23,29,left,left,1,0.915
2,Optim,Time,23,30,right,right,1,1.004
2,Optim,Time,23,31,right,left,0,-0.84
2,Optim,Time,23,32,right,right,1,1.18
2,Optim,Time,23,33,right,right,1,1.181
2,Optim,Time,23,34,right,right,1,0.773
2,Optim,Time,23,35,left,left,1,0.963
2,Optim,Time,23,36,left,left,1,0.758
2,Optim,Time,23,37,right,right,1,1.38
2,Optim,Time,24,1,left,left,1,1.693
2,Optim,Time,24,2,right,right,1,1.242
2,Optim,Time,24,3,right,right,1,1.237
2,Optim,Time,24,4,right,right,1,1.064
2,Optim,Time,24,5,right,right,1,0.908
2,Optim,Time,24,6,left,left,1,1.414
2,Optim,Time,24,7,right,right,1,1.052
2,Optim,Time,24,8,right,right,1,0.865
2,Optim,Time,24,9,right,right,1,0.88
2,Optim,Time,24,10,right,right,1,0.857
2,Optim,Time,24,11,left,left,1,0.986
2,Optim,Time,24,12,right,right,1,2.125
2,Optim,Time,24,13,left,left,1,2.342
2,Optim,Time,24,14,left,left,1,1.38
2,Optim,Time,24,15,left,left,1,0.642
2,Optim,Time,24,16,left,left,1,0.685
2,Optim,Time,24,17,left,left,1,1.512
2,Optim,Time,24,18,right,right,1,1.673
2,Optim,Time,24,19,left,left,1,0.79
2,Optim,Time,24,20,left,left,1,0.885
2,Optim,Time,24,21,right,right,1,1.965
2,Optim,Time,24,22,left,left,1,0.682
2,Optim,Time,24,23,right,right,1,1.421
2,Optim,Time,24,24,left,left,1,1.084
2,Optim,Time,24,25,right,right,1,0.866
2,Optim,Time,24,26,right,right,1,1.099
2,Optim,Time,24,27,right,right,1,1.001
2,Optim,Time,24,28,left,left,1,0.901
2,Optim,Time,24,29,left,left,1,1.671
2,Optim,Time,24,30,right,left,0,-3.226
2,Optim,Time,24,31,right,right,1,2.468
2,Optim,Time,24,32,left,left,1,1.19
2,Optim,Time,24,33,right,right,1,0.702
2,Optim,Time,24,34,left,left,1,0.763
2,Optim,Time,24,35,right,right,1,0.928
2,Optim,Time,24,36,left,left,1,0.578
2,Optim,Time,24,37,right,right,1,0.907
3,Optim,Trial,1,1,left,left,1,4.716
3,Optim,Trial,1,2,left,left,1,5.88
3,Optim,Trial,1,3,left,left,1,3.137
3,Optim,Trial,1,4,right,right,1,1.027
3,Optim,Trial,1,5,left,left,1,1.247
3,Optim,Trial,1,6,right,right,1,1.329
3,Optim,Trial,1,7,right,right,1,2.013
3,Optim,Trial,1,8,left,left,1,2.411
3,Optim,Trial,1,9,left,right,0,-1.643
3,Optim,Trial,1,10,right,right,1,1.388
3,Optim,Trial,1,11,left,left,1,5.29
3,Optim,Trial,1,12,right,right,1,1.74
3,Optim,Trial,1,13,right,right,1,1.515
3,Optim,Trial,1,14,left,left,1,5.828
3,Optim,Trial,1,15,right,right,1,6.54
3,Optim,Trial,1,16,left,left,1,1.07
3,Optim,Trial,1,17,right,right,1,1.363
3,Optim,Trial,1,18,right,left,0,-2.12
3,Optim,Trial,1,19,right,right,1,2.268
3,Optim,Trial,1,20,right,right,1,1.609
3,Optim,Trial,1,21,right,right,1,1.42
3,Optim,Trial,1,22,right,right,1,1.763
3,Optim,Trial,1,23,right,left,0,-6.922
3,Optim,Trial,1,24,left,right,0,-1.115
3,Optim,Trial,1,25,left,left,1,2.726
3,Optim,Trial,1,26,right,right,1,10.846
3,Optim,Trial,1,27,right,right,1,6.43
3,Optim,Trial,1,28,right,right,1,2.717
3,Optim,Trial,1,29,right,left,0,-4.23
3,Optim,Trial,1,30,left,left,1,1.345
3,Optim,Trial,1,31,left,right,0,-3.117
3,Optim,Trial,1,32,left,left,1,2.868
3,Optim,Trial,1,33,left,left,1,6.84
3,Optim,Trial,1,34,left,right,0,-1.442
3,Optim,Trial,1,35,right,right,1,3.302
3,Optim,Trial,1,36,right,right,1,4.252
3,Optim,Trial,1,37,left,left,1,3.059
3,Optim,Trial,1,38,left,right,0,-9.636
3,Optim,Trial,1,39,left,left,1,18.866
3,Optim,Trial,1,40,left,left,1,12.431
3,Optim,Trial,2,1,left,right,0,-2.952
3,Optim,Trial,2,2,left,left,1,2.595
3,Optim,Trial,2,3,right,right,1,3.928
3,Optim,Trial,2,4,right,right,1,11.559
3,Optim,Trial,2,5,right,right,1,6.377
3,Optim,Trial,2,6,right,right,1,4.734
3,Optim,Trial,2,7,left,right,0,-6.21
3,Optim,Trial,2,8,right,right,1,14.232
3,Optim,Trial,2,9,right,right,1,4.487
3,Optim,Trial,2,10,left,left,1,4.213
3,Optim,Trial,2,11,left,left,1,15.586
3,Optim,Trial,2,12,right,left,0,-10.221
3,Optim,Trial,2,13,left,left,1,2.57
3,Optim,Trial,2,14,left,left,1,6.43
3,Optim,Trial,2,15,left,left,1,6.077
3,Optim,Trial,2,16,right,right,1,3.834
3,Optim,Trial,2,17,right,right,1,1.031
3,Optim,Trial,2,18,left,left,1,2.172
3,Optim,Trial,2,19,right,right,1,1.31
3,Optim,Trial,2,20,right,right,1,5.21
3,Optim,Trial,2,21,right,right,1,5.082
3,Optim,Trial,2,22,right,right,1,4.43
3,Optim,Trial,2,23,left,left,1,3.258
3,Optim,Trial,2,24,left,left,1,6.168
3,Optim,Trial,2,25,left,left,1,6.728
3,Optim,Trial,2,26,left,left,1,2.694
3,Optim,Trial,2,27,left,left,1,2.398
3,Optim,Trial,2,28,left,left,1,5.429
3,Optim,Trial,2,29,right,right,1,1.475
3,Optim,Trial,2,30,right,right,1,1.843
3,Optim,Trial,2,31,left,left,1,2.084
3,Optim,Trial,2,32,right,right,1,5.148
3,Optim,Trial,2,33,right,right,1,1.442
3,Optim,Trial,2,34,left,left,1,0.977
3,Optim,Trial,2,35,right,right,1,0.885
3,Optim,Trial,2,36,left,left,1,0.853
3,Optim,Trial,2,37,left,right,0,-0.917
3,Optim,Trial,2,38,right,right,1,2.724
3,Optim,Trial,2,39,left,left,1,1.22
3,Optim,Trial,2,40,right,right,1,2.077
3,Optim,Trial,3,1,left,left,1,3.193
3,Optim,Trial,3,2,left,left,1,5.837
3,Optim,Trial,3,3,right,right,1,3.973
3,Optim,Trial,3,4,right,right,1,4.197
3,Optim,Trial,3,5,right,left,0,-9.595
3,Optim,Trial,3,6,right,right,1,8.416
3,Optim,Trial,3,7,left,left,1,3.01
3,Optim,Trial,3,8,left,left,1,6.274
3,Optim,Trial,3,9,right,right,1,3.916
3,Optim,Trial,3,10,left,left,1,2.067
3,Optim,Trial,3,11,right,right,1,2.018
3,Optim,Trial,3,12,right,left,0,-4.28
3,Optim,Trial,3,13,right,right,1,5.029
3,Optim,Trial,3,14,right,right,1,16.783
3,Optim,Trial,3,15,left,right,0,-4.312
3,Optim,Trial,3,16,left,left,1,7.982
3,Optim,Trial,3,17,right,right,1,5.365
3,Optim,Trial,3,18,left,left,1,1.744
3,Optim,Trial,3,19,left,left,1,3.767
3,Optim,Trial,3,20,left,left,1,8.937
3,Optim,Trial,3,21,left,right,0,-9.056
3,Optim,Trial,3,22,right,right,1,6.023
3,Optim,Trial,3,23,left,left,1,3.38
3,Optim,Trial,3,24,left,left,1,1.925
3,Optim,Trial,3,25,left,left,1,5.208
3,Optim,Trial,3,26,left,left,1,3.472
3,Optim,Trial,3,27,right,left,0,-2.579
3,Optim,Trial,3,28,right,right,1,4.019
3,Optim,Trial,3,29,left,left,1,3.269
3,Optim,Trial,3,30,left,left,1,4.339
3,Optim,Trial,3,31,right,left,0,-5.276
3,Optim,Trial,3,32,right,right,1,1.195
3,Optim,Trial,3,33,left,left,1,1.395
3,Optim,Trial,3,34,left,right,0,-3.314
3,Optim,Trial,3,35,right,left,0,-4.286
3,Optim,Trial,3,36,right,right,1,3.682
3,Optim,Trial,3,37,right,right,1,2.178
3,Optim,Trial,3,38,right,right,1,1.884
3,Optim,Trial,3,39,right,right,1,1.726
3,Optim,Trial,3,40,left,right,0,-6.221
3,Optim,Trial,4,1,right,right,1,2.129
3,Optim,Trial,4,2,left,left,1,1.346
3,Optim,Trial,4,3,right,right,1,2.302
3,Optim,Trial,4,4,left,left,1,2.068
3,Optim,Trial,4,5,left,right,0,-3.371
3,Optim,Trial,4,6,left,left,1,3.657
3,Optim,Trial,4,7,left,left,1,2.16
3,Optim,Trial,4,8,right,right,1,7.473
3,Optim,Trial,4,9,right,left,0,-2.195
3,Optim,Trial,4,10,left,right,0,-11.027
3,Optim,Trial,4,11,right,right,1,0.852
3,Optim,Trial,4,12,right,right,1,1.58
3,Optim,Trial,4,13,left,left,1,1.783
3,Optim,Trial,4,14,left,left,1,1.791
3,Optim,Trial,4,15,left,left,1,2.303
3,Optim,Trial,4,16,right,right,1,1.124
3,Optim,Trial,4,17,left,left,1,1.019
3,Optim,Trial,4,18,left,left,1,1.815
3,Optim,Trial,4,19,right,right,1,1.88
3,Optim,Trial,4,20,left,left,1,3.162
3,Optim,Trial,4,21,right,right,1,6.237
3,Optim,Trial,4,22,left,left,1,2.119
3,Optim,Trial,4,23,right,right,1,2.791
3,Optim,Trial,4,24,right,right,1,5.321
3,Optim,Trial,4,25,right,right,1,2.164
3,Optim,Trial,4,26,right,right,1,5.502
3,Optim,Trial,4,27,left,left,1,2.045
3,Optim,Trial,4,28,right,right,1,9.907
3,Optim,Trial,4,29,right,right,1,1.923
3,Optim,Trial,4,30,left,left,1,2.358
3,Optim,Trial,4,31,right,right,1,7.813
3,Optim,Trial,4,32,right,left,0,-1.088
3,Optim,Trial,4,33,left,right,0,-3.61
3,Optim,Trial,4,34,right,right,1,1.558
3,Optim,Trial,4,35,left,left,1,0.848
3,Optim,Trial,4,36,left,left,1,4.208
3,Optim,Trial,4,37,left,left,1,3.83
3,Optim,Trial,4,38,right,right,1,2.763
3,Optim,Trial,4,39,right,right,1,3.907
3,Optim,Trial,4,40,left,left,1,1.489
3,Optim,Trial,5,1,left,left,1,1.075
3,Optim,Trial,5,2,right,right,1,0.625
3,Optim,Trial,5,3,right,left,0,-0.436
3,Optim,Trial,5,4,right,right,1,1.246
3,Optim,Trial,5,5,right,left,0,-0.456
3,Optim,Trial,5,6,right,right,1,0.763
3,Optim,Trial,5,7,left,left,1,1.065
3,Optim,Trial,5,8,right,right,1,0.758
3,Optim,Trial,5,9,left,left,1,1.588
3,Optim,Trial,5,10,right,right,1,0.687
3,Optim,Trial,5,11,right,right,1,1.315
3,Optim,Trial,5,12,right,right,1,1.231
3,Optim,Trial,5,13,right,right,1,0.76
3,Optim,Trial,5,14,left,left,1,0.654
3,Optim,Trial,5,15,left,right,0,-0.953
3,Optim,Trial,5,16,left,left,1,0.873
3,Optim,Trial,5,17,right,right,1,0.633
3,Optim,Trial,5,18,right,left,0,-0.691
3,Optim,Trial,5,19,left,left,1,0.748
3,Optim,Trial,5,20,right,right,1,0.409
3,Optim,Trial,5,21,left,left,1,0.438
3,Optim,Trial,5,22,right,right,1,0.363
3,Optim,Trial,5,23,left,left,1,0.399
3,Optim,Trial,5,24,right,right,1,0.355
3,Optim,Trial,5,25,left,left,1,0.367
3,Optim,Trial,5,26,right,right,1,0.37
3,Optim,Trial,5,27,right,left,0,-0.349
3,Optim,Trial,5,28,right,right,1,1.294
3,Optim,Trial,5,29,left,left,1,0.44
3,Optim,Trial,5,30,right,right,1,0.31
3,Optim,Trial,5,31,left,left,1,0.329
3,Optim,Trial,5,32,left,right,0,-0.299
3,Optim,Trial,5,33,left,left,1,0.562
3,Optim,Trial,5,34,left,right,0,-0.315
3,Optim,Trial,5,35,left,left,1,0.424
3,Optim,Trial,5,36,left,left,1,1.494
3,Optim,Trial,5,37,left,left,1,1.03
3,Optim,Trial,5,38,left,right,0,-0.603
3,Optim,Trial,5,39,left,left,1,0.554
3,Optim,Trial,5,40,right,right,1,0.986
3,Optim,Trial,6,1,left,left,1,1.51
3,Optim,Trial,6,2,right,right,1,0.319
3,Optim,Trial,6,3,left,left,1,0.305
3,Optim,Trial,6,4,right,right,1,0.283
3,Optim,Trial,6,5,right,left,0,-0.301
3,Optim,Trial,6,6,left,left,1,0.539
3,Optim,Trial,6,7,left,right,0,-0.307
3,Optim,Trial,6,8,right,left,0,-0.378
3,Optim,Trial,6,9,left,left,1,1.563
3,Optim,Trial,6,10,left,left,1,1.149
3,Optim,Trial,6,11,right,right,1,0.709
3,Optim,Trial,6,12,left,left,1,1.121
3,Optim,Trial,6,13,right,right,1,0.656
3,Optim,Trial,6,14,right,right,1,0.675
3,Optim,Trial,6,15,right,left,0,-0.575
3,Optim,Trial,6,16,left,left,1,1.036
3,Optim,Trial,6,17,right,right,1,3.106
3,Optim,Trial,6,18,left,left,1,1.195
3,Optim,Trial,6,19,left,right,0,-0.707
3,Optim,Trial,6,20,right,left,0,-1.869
3,Optim,Trial,6,21,left,left,1,2.771
3,Optim,Trial,6,22,right,right,1,1.124
3,Optim,Trial,6,23,right,right,1,1.499
3,Optim,Trial,6,24,left,left,1,0.932
3,Optim,Trial,6,25,right,right,1,0.974
3,Optim,Trial,6,26,left,right,0,-0.801
3,Optim,Trial,6,27,right,right,1,0.693
3,Optim,Trial,6,28,left,left,1,0.633
3,Optim,Trial,6,29,right,right,1,0.875
3,Optim,Trial,6,30,left,left,1,0.812
3,Optim,Trial,6,31,right,right,1,0.611
3,Optim,Trial,6,32,left,left,1,0.669
3,Optim,Trial,6,33,right,right,1,1.232
3,Optim,Trial,6,34,right,right,1,0.946
3,Optim,Trial,6,35,left,left,1,1.18
3,Optim,Trial,6,36,right,right,1,1.293
3,Optim,Trial,6,37,right,right,1,0.968
3,Optim,Trial,6,38,left,left,1,0.587
3,Optim,Trial,6,39,left,right,0,-0.716
3,Optim,Trial,6,40,left,left,1,0.773
3,Optim,Trial,7,1,right,right,1,0.934
3,Optim,Trial,7,2,left,left,1,0.392
3,Optim,Trial,7,3,right,right,1,0.316
3,Optim,Trial,7,4,left,left,1,0.31
3,Optim,Trial,7,5,right,right,1,0.312
3,Optim,Trial,7,6,left,left,1,0.306
3,Optim,Trial,7,7,right,right,1,0.316
3,Optim,Trial,7,8,right,left,0,-0.303
3,Optim,Trial,7,9,left,left,1,0.774
3,Optim,Trial,7,10,left,left,1,0.66
3,Optim,Trial,7,11,right,right,1,0.711
3,Optim,Trial,7,12,right,right,1,0.515
3,Optim,Trial,7,13,left,left,1,0.466
3,Optim,Trial,7,14,left,right,0,-0.433
3,Optim,Trial,7,15,right,right,1,0.579
3,Optim,Trial,7,16,right,left,0,-0.38
3,Optim,Trial,7,17,left,left,1,0.837
3,Optim,Trial,7,18,left,left,1,0.556
3,Optim,Trial,7,19,right,right,1,0.47
3,Optim,Trial,7,20,left,left,1,1.059
3,Optim,Trial,7,21,left,left,1,0.608
3,Optim,Trial,7,22,left,left,1,0.722
3,Optim,Trial,7,23,left,left,1,0.463
3,Optim,Trial,7,24,left,right,0,-0.501
3,Optim,Trial,7,25,left,right,0,-0.793
3,Optim,Trial,7,26,right,left,0,-1.156
3,Optim,Trial,7,27,right,right,1,1.033
3,Optim,Trial,7,28,right,left,0,-0.358
3,Optim,Trial,7,29,left,right,0,-0.958
3,Optim,Trial,7,30,right,left,0,-0.566
3,Optim,Trial,7,31,left,left,1,0.386
3,Optim,Trial,7,32,left,right,0,-0.302
3,Optim,Trial,7,33,left,right,0,-0.453
3,Optim,Trial,7,34,right,right,1,0.456
3,Optim,Trial,7,35,right,right,1,2.086
3,Optim,Trial,7,36,right,left,0,-0.582
3,Optim,Trial,7,37,right,right,1,1.116
3,Optim,Trial,7,38,right,right,1,1.147
3,Optim,Trial,7,39,right,right,1,1.354
3,Optim,Trial,7,40,left,left,1,0.991
3,Optim,Trial,8,1,right,right,1,1.215
3,Optim,Trial,8,2,right,right,1,1.064
3,Optim,Trial,8,3,left,right,0,-0.853
3,Optim,Trial,8,4,left,left,1,1.858
3,Optim,Trial,8,5,right,right,1,1.172
3,Optim,Trial,8,6,left,left,1,1.301
3,Optim,Trial,8,7,right,right,1,0.712
3,Optim,Trial,8,8,right,right,1,3.397
3,Optim,Trial,8,9,left,left,1,1.702
3,Optim,Trial,8,10,left,left,1,1.468
3,Optim,Trial,8,11,right,right,1,1.019
3,Optim,Trial,8,12,right,right,1,0.719
3,Optim,Trial,8,13,right,right,1,0.533
3,Optim,Trial,8,14,left,left,1,1.236
3,Optim,Trial,8,15,right,right,1,0.614
3,Optim,Trial,8,16,left,left,1,0.472
3,Optim,Trial,8,17,left,right,0,-0.39
3,Optim,Trial,8,18,left,left,1,1.232
3,Optim,Trial,8,19,left,left,1,1.05
3,Optim,Trial,8,20,right,right,1,0.727
3,Optim,Trial,8,21,right,right,1,0.851
3,Optim,Trial,8,22,right,right,1,0.651
3,Optim,Trial,8,23,left,left,1,0.502
3,Optim,Trial,8,24,left,right,0,-0.389
3,Optim,Trial,8,25,right,right,1,0.599
3,Optim,Trial,8,26,left,left,1,0.585
3,Optim,Trial,8,27,left,right,0,-0.402
3,Optim,Trial,8,28,left,right,0,-0.771
3,Optim,Trial,8,29,left,left,1,1.022
3,Optim,Trial,8,30,right,right,1,0.466
3,Optim,Trial,8,31,right,left,0,-0.392
3,Optim,Trial,8,32,left,left,1,0.817
3,Optim,Trial,8,33,right,right,1,0.88
3,Optim,Trial,8,34,left,left,1,1.457
3,Optim,Trial,8,35,left,left,1,0.817
3,Optim,Trial,8,36,right,right,1,0.624
3,Optim,Trial,8,37,left,right,0,-1.883
3,Optim,Trial,8,38,right,right,1,1.674
3,Optim,Trial,8,39,right,right,1,0.911
3,Optim,Trial,8,40,right,right,1,0.697
3,Optim,Trial,9,1,left,left,1,1.111
3,Optim,Trial,9,2,right,right,1,0.55
3,Optim,Trial,9,3,right,right,1,0.623
3,Optim,Trial,9,4,left,left,1,0.433
3,Optim,Trial,9,5,right,right,1,0.55
3,Optim,Trial,9,6,right,left,0,-0.398
3,Optim,Trial,9,7,right,right,1,0.783
3,Optim,Trial,9,8,right,right,1,0.589
3,Optim,Trial,9,9,right,right,1,0.751
3,Optim,Trial,9,10,left,right,0,-0.564
3,Optim,Trial,9,11,left,left,1,0.874
3,Optim,Trial,9,12,right,right,1,0.643
3,Optim,Trial,9,13,left,right,0,-0.653
3,Optim,Trial,9,14,left,left,1,0.973
3,Optim,Trial,9,15,left,right,0,-0.432
3,Optim,Trial,9,16,left,right,0,-0.714
3,Optim,Trial,9,17,right,right,1,0.843
3,Optim,Trial,9,18,right,right,1,1.275
3,Optim,Trial,9,19,left,left,1,1.174
3,Optim,Trial,9,20,left,left,1,1.391
3,Optim,Trial,9,21,right,right,1,0.637
3,Optim,Trial,9,22,right,right,1,0.615
3,Optim,Trial,9,23,right,right,1,1.017
3,Optim,Trial,9,24,left,left,1,0.909
3,Optim,Trial,9,25,left,right,0,-0.599
3,Optim,Trial,9,26,right,right,1,0.685
3,Optim,Trial,9,27,left,left,1,0.721
3,Optim,Trial,9,28,left,left,1,1.437
3,Optim,Trial,9,29,left,left,1,0.972
3,Optim,Trial,9,30,left,right,0,-1.407
3,Optim,Trial,9,31,left,right,0,-1.01
3,Optim,Trial,9,32,right,right,1,1.907
3,Optim,Trial,9,33,left,left,1,0.918
3,Optim,Trial,9,34,right,right,1,1.104
3,Optim,Trial,9,35,right,right,1,1.278
3,Optim,Trial,9,36,right,right,1,1.041
3,Optim,Trial,9,37,right,left,0,-1.334
3,Optim,Trial,9,38,right,right,1,1.119
3,Optim,Trial,9,39,left,left,1,0.798
3,Optim,Trial,9,40,left,left,1,0.684
3,Optim,Trial,10,1,left,left,1,1.651
3,Optim,Trial,10,2,right,right,1,0.695
3,Optim,Trial,10,3,right,right,1,0.571
3,Optim,Trial,10,4,right,right,1,0.836
3,Optim,Trial,10,5,left,left,1,0.475
3,Optim,Trial,10,6,left,left,1,0.45
3,Optim,Trial,10,7,right,left,0,-0.383
3,Optim,Trial,10,8,right,right,1,0.768
3,Optim,Trial,10,9,left,left,1,0.662
3,Optim,Trial,10,10,right,right,1,1.113
3,Optim,Trial,10,11,left,left,1,0.552
3,Optim,Trial,10,12,left,left,1,0.551
3,Optim,Trial,10,13,left,left,1,1.271
3,Optim,Trial,10,14,left,right,0,-0.994
3,Optim,Trial,10,15,right,right,1,1.187
3,Optim,Trial,10,16,left,left,1,0.707
3,Optim,Trial,10,17,right,right,1,0.657
3,Optim,Trial,10,18,left,left,1,0.499
3,Optim,Trial,10,19,left,left,1,0.866
3,Optim,Trial,10,20,left,left,1,0.835
3,Optim,Trial,10,21,left,left,1,0.538
3,Optim,Trial,10,22,right,right,1,1.202
3,Optim,Trial,10,23,right,right,1,0.684
3,Optim,Trial,10,24,right,left,0,-1.207
3,Optim,Trial,10,25,left,left,1,0.701
3,Optim,Trial,10,26,right,right,1,0.857
3,Optim,Trial,10,27,right,right,1,1.529
3,Optim,Trial,10,28,right,left,0,-0.706
3,Optim,Trial,10,29,left,left,1,0.876
3,Optim,Trial,10,30,right,right,1,1.668
3,Optim,Trial,10,31,left,left,1,1.449
3,Optim,Trial,10,32,right,right,1,0.777
3,Optim,Trial,10,33,left,left,1,0.687
3,Optim,Trial,10,34,left,left,1,0.771
3,Optim,Trial,10,35,left,right,0,-1.025
3,Optim,Trial,10,36,right,right,1,1.41
3,Optim,Trial,10,37,right,left,0,-0.576
3,Optim,Trial,10,38,right,right,1,0.59
3,Optim,Trial,10,39,left,right,0,-0.871
3,Optim,Trial,10,40,right,right,1,2.699
3,Optim,Trial,11,1,right,right,1,0.926
3,Optim,Trial,11,2,left,left,1,0.72
3,Optim,Trial,11,3,right,right,1,0.605
3,Optim,Trial,11,4,left,left,1,0.862
3,Optim,Trial,11,5,right,right,1,0.631
3,Optim,Trial,11,6,right,left,0,-0.505
3,Optim,Trial,11,7,right,right,1,0.709
3,Optim,Trial,11,8,left,left,1,0.746
3,Optim,Trial,11,9,right,right,1,0.895
3,Optim,Trial,11,10,left,right,0,-1.232
3,Optim,Trial,11,11,left,left,1,0.903
3,Optim,Trial,11,12,left,right,0,-1.432
3,Optim,Trial,11,13,right,right,1,0.796
3,Optim,Trial,11,14,left,left,1,0.746
3,Optim,Trial,11,15,left,left,1,1.599
3,Optim,Trial,11,16,left,left,1,1.37
3,Optim,Trial,11,17,left,left,1,0.743
3,Optim,Trial,11,18,right,right,1,0.597
3,Optim,Trial,11,19,left,right,0,-1.566
3,Optim,Trial,11,20,right,right,1,0.757
3,Optim,Trial,11,21,right,right,1,1.107
3,Optim,Trial,11,22,left,left,1,0.745
3,Optim,Trial,11,23,right,right,1,1.117
3,Optim,Trial,11,24,left,left,1,1.116
3,Optim,Trial,11,25,left,right,0,-1.123
3,Optim,Trial,11,26,left,left,1,0.759
3,Optim,Trial,11,27,left,left,1,0.869
3,Optim,Trial,11,28,left,left,1,0.549
3,Optim,Trial,11,29,right,right,1,0.63
3,Optim,Trial,11,30,left,right,0,-0.632
3,Optim,Trial,11,31,right,right,1,0.647
3,Optim,Trial,11,32,right,right,1,0.77
3,Optim,Trial,11,33,left,left,1,0.544
3,Optim,Trial,11,34,right,left,0,-0.472
3,Optim,Trial,11,35,left,left,1,0.859
3,Optim,Trial,11,36,right,right,1,0.7
3,Optim,Trial,11,37,right,right,1,0.888
3,Optim,Trial,11,38,right,right,1,0.793
3,Optim,Trial,11,39,right,right,1,0.599
3,Optim,Trial,11,40,right,right,1,0.609
3,Optim,Trial,12,1,right,right,1,0.863
3,Optim,Trial,12,2,left,left,1,1.128
3,Optim,Trial,12,3,left,left,1,1.263
3,Optim,Trial,12,4,left,right,0,-0.818
3,Optim,Trial,12,5,right,right,1,0.51
3,Optim,Trial,12,6,right,right,1,0.572
3,Optim,Trial,12,7,right,right,1,0.781
3,Optim,Trial,12,8,right,right,1,0.588
3,Optim,Trial,12,9,left,right,0,-0.524
3,Optim,Trial,12,10,left,right,0,-0.649
3,Optim,Trial,12,11,right,right,1,0.639
3,Optim,Trial,12,12,right,right,1,0.674
3,Optim,Trial,12,13,left,left,1,0.574
3,Optim,Trial,12,14,left,left,1,0.559
3,Optim,Trial,12,15,right,right,1,0.487
3,Optim,Trial,12,16,right,right,1,0.598
3,Optim,Trial,12,17,left,left,1,1.104
3,Optim,Trial,12,18,right,right,1,0.734
3,Optim,Trial,12,19,left,left,1,1.283
3,Optim,Trial,12,20,left,left,1,0.742
3,Optim,Trial,12,21,left,left,1,0.548
3,Optim,Trial,12,22,left,left,1,0.404
3,Optim,Trial,12,23,left,right,0,-1.177
3,Optim,Trial,12,24,left,right,0,-2.52
3,Optim,Trial,12,25,left,left,1,2.181
3,Optim,Trial,12,26,right,left,0,-0.415
3,Optim,Trial,12,27,left,right,0,-3.448
3,Optim,Trial,12,28,right,right,1,0.552
3,Optim,Trial,12,29,right,right,1,1.128
3,Optim,Trial,12,30,right,right,1,0.576
3,Optim,Trial,12,31,right,right,1,0.472
3,Optim,Trial,12,32,right,right,1,0.383
3,Optim,Trial,12,33,right,right,1,0.387
3,Optim,Trial,12,34,right,right,1,0.375
3,Optim,Trial,12,35,left,right,0,-0.339
3,Optim,Trial,12,36,right,right,1,1.226
3,Optim,Trial,12,37,left,right,0,-0.54
3,Optim,Trial,12,38,right,left,0,-0.801
3,Optim,Trial,12,39,left,left,1,1.62
3,Optim,Trial,12,40,left,left,1,0.527
3,Optim,Trial,13,1,right,right,1,0.688
3,Optim,Trial,13,2,right,right,1,0.597
3,Optim,Trial,13,3,right,right,1,0.654
3,Optim,Trial,13,4,left,right,0,-0.465
3,Optim,Trial,13,5,left,right,0,-0.724
3,Optim,Trial,13,6,left,right,0,-1.781
3,Optim,Trial,13,7,left,left,1,1.426
3,Optim,Trial,13,8,right,left,0,-2.201
3,Optim,Trial,13,9,left,left,1,0.465
3,Optim,Trial,13,10,right,right,1,1.183
3,Optim,Trial,13,11,right,right,1,1.711
3,Optim,Trial,13,12,left,right,0,-1.317
3,Optim,Trial,13,13,right,left,0,-0.294
3,Optim,Trial,13,14,right,left,0,-0.564
3,Optim,Trial,13,15,right,right,1,0.418
3,Optim,Trial,13,16,left,right,0,-1.191
3,Optim,Trial,13,17,left,right,0,-0.788
3,Optim,Trial,13,18,right,right,1,0.368
3,Optim,Trial,13,19,right,right,1,0.843
3,Optim,Trial,13,20,right,right,1,1.467
3,Optim,Trial,13,21,left,right,0,-0.794
3,Optim,Trial,13,22,right,right,1,0.366
3,Optim,Trial,13,23,right,left,0,-0.449
3,Optim,Trial,13,24,left,tooFast,2,-0.236
3,Optim,Trial,13,25,right,right,1,0.657
3,Optim,Trial,13,26,left,right,0,-0.492
3,Optim,Trial,13,27,right,left,0,-0.671
3,Optim,Trial,13,28,left,right,0,-0.487
3,Optim,Trial,13,29,right,right,1,0.875
3,Optim,Trial,13,30,left,right,0,-0.595
3,Optim,Trial,13,31,left,right,0,-0.442
3,Optim,Trial,13,32,right,right,1,0.628
3,Optim,Trial,13,33,left,left,1,1.255
3,Optim,Trial,13,34,left,left,1,0.881
3,Optim,Trial,13,35,right,right,1,0.586
3,Optim,Trial,13,36,left,left,1,0.483
3,Optim,Trial,13,37,left,right,0,-0.393
3,Optim,Trial,13,38,left,right,0,-0.602
3,Optim,Trial,13,39,left,left,1,0.697
3,Optim,Trial,13,40,right,right,1,0.716
3,Optim,Trial,14,1,right,right,1,0.774
3,Optim,Trial,14,2,left,left,1,0.444
3,Optim,Trial,14,3,right,right,1,0.514
3,Optim,Trial,14,4,left,left,1,2.793
3,Optim,Trial,14,5,right,left,0,-0.547
3,Optim,Trial,14,6,left,left,1,0.704
3,Optim,Trial,14,7,left,left,1,0.748
3,Optim,Trial,14,8,left,right,0,-0.545
3,Optim,Trial,14,9,right,left,0,-0.838
3,Optim,Trial,14,10,right,left,0,-0.426
3,Optim,Trial,14,11,left,left,1,0.676
3,Optim,Trial,14,12,right,right,1,0.536
3,Optim,Trial,14,13,left,right,0,-1.095
3,Optim,Trial,14,14,left,left,1,0.731
3,Optim,Trial,14,15,right,left,0,-0.743
3,Optim,Trial,14,16,right,right,1,0.873
3,Optim,Trial,14,17,right,right,1,0.898
3,Optim,Trial,14,18,left,left,1,0.923
3,Optim,Trial,14,19,left,left,1,0.534
3,Optim,Trial,14,20,right,right,1,0.462
3,Optim,Trial,14,21,left,left,1,0.484
3,Optim,Trial,14,22,left,right,0,-0.378
3,Optim,Trial,14,23,right,right,1,0.579
3,Optim,Trial,14,24,left,left,1,1.436
3,Optim,Trial,14,25,right,right,1,0.715
3,Optim,Trial,14,26,right,right,1,0.719
3,Optim,Trial,14,27,left,left,1,0.684
3,Optim,Trial,14,28,left,left,1,0.831
3,Optim,Trial,14,29,right,right,1,0.559
3,Optim,Trial,14,30,left,right,0,-0.847
3,Optim,Trial,14,31,right,right,1,0.668
3,Optim,Trial,14,32,left,left,1,0.639
3,Optim,Trial,14,33,right,right,1,0.457
3,Optim,Trial,14,34,left,left,1,1.591
3,Optim,Trial,14,35,right,right,1,0.651
3,Optim,Trial,14,36,left,right,0,-0.813
3,Optim,Trial,14,37,right,right,1,0.425
3,Optim,Trial,14,38,right,left,0,-0.326
3,Optim,Trial,14,39,right,left,0,-0.5
3,Optim,Trial,14,40,left,left,1,0.648
3,Optim,Trial,15,1,left,right,0,-0.501
3,Optim,Trial,15,2,right,right,1,0.481
3,Optim,Trial,15,3,right,right,1,0.551
3,Optim,Trial,15,4,left,left,1,0.608
3,Optim,Trial,15,5,left,left,1,1.274
3,Optim,Trial,15,6,left,left,1,0.54
3,Optim,Trial,15,7,left,right,0,-0.556
3,Optim,Trial,15,8,left,right,0,-0.401
3,Optim,Trial,15,9,left,right,0,-0.61
3,Optim,Trial,15,10,left,left,1,0.897
3,Optim,Trial,15,11,left,right,0,-0.61
3,Optim,Trial,15,12,right,right,1,0.569
3,Optim,Trial,15,13,left,right,0,-0.386
3,Optim,Trial,15,14,right,right,1,0.475
3,Optim,Trial,15,15,left,left,1,0.425
3,Optim,Trial,15,16,left,right,0,-0.39
3,Optim,Trial,15,17,right,right,1,0.512
3,Optim,Trial,15,18,left,left,1,0.415
3,Optim,Trial,15,19,left,right,0,-0.491
3,Optim,Trial,15,20,right,right,1,0.447
3,Optim,Trial,15,21,right,left,0,-0.525
3,Optim,Trial,15,22,right,right,1,0.489
3,Optim,Trial,15,23,right,right,1,0.447
3,Optim,Trial,15,24,left,left,1,0.429
3,Optim,Trial,15,25,right,left,0,-0.61
3,Optim,Trial,15,26,right,right,1,0.521
3,Optim,Trial,15,27,right,right,1,0.444
3,Optim,Trial,15,28,left,right,0,-0.55
3,Optim,Trial,15,29,left,right,0,-0.61
3,Optim,Trial,15,30,left,right,0,-0.505
3,Optim,Trial,15,31,left,right,0,-0.645
3,Optim,Trial,15,32,right,left,0,-0.757
3,Optim,Trial,15,33,right,right,1,0.567
3,Optim,Trial,15,34,right,right,1,0.752
3,Optim,Trial,15,35,right,right,1,0.709
3,Optim,Trial,15,36,left,right,0,-0.874
3,Optim,Trial,15,37,right,right,1,0.735
3,Optim,Trial,15,38,right,right,1,1.069
3,Optim,Trial,15,39,right,right,1,0.722
3,Optim,Trial,15,40,right,right,1,0.727
3,Optim,Trial,16,1,left,right,0,-1.238
3,Optim,Trial,16,2,left,left,1,0.757
3,Optim,Trial,16,3,left,right,0,-0.906
3,Optim,Trial,16,4,right,right,1,0.897
3,Optim,Trial,16,5,right,right,1,0.858
3,Optim,Trial,16,6,left,left,1,1.091
3,Optim,Trial,16,7,left,left,1,1.249
3,Optim,Trial,16,8,left,left,1,0.731
3,Optim,Trial,16,9,right,right,1,0.592
3,Optim,Trial,16,10,right,left,0,-0.689
3,Optim,Trial,16,11,left,left,1,0.602
3,Optim,Trial,16,12,left,left,1,1.172
3,Optim,Trial,16,13,right,right,1,0.62
3,Optim,Trial,16,14,left,left,1,1.797
3,Optim,Trial,16,15,left,left,1,0.614
3,Optim,Trial,16,16,right,left,0,-0.575
3,Optim,Trial,16,17,right,right,1,0.565
3,Optim,Trial,16,18,right,right,1,0.806
3,Optim,Trial,16,19,left,left,1,0.685
3,Optim,Trial,16,20,right,right,1,0.872
3,Optim,Trial,16,21,right,right,1,1.033
3,Optim,Trial,16,22,right,right,1,0.766
3,Optim,Trial,16,23,left,left,1,0.612
3,Optim,Trial,16,24,right,right,1,0.662
3,Optim,Trial,16,25,left,left,1,0.641
3,Optim,Trial,16,26,right,right,1,0.588
3,Optim,Trial,16,27,right,right,1,0.925
3,Optim,Trial,16,28,left,left,1,0.983
3,Optim,Trial,16,29,left,right,0,-1.778
3,Optim,Trial,16,30,right,right,1,0.639
3,Optim,Trial,16,31,left,left,1,0.633
3,Optim,Trial,16,32,right,right,1,0.556
3,Optim,Trial,16,33,right,right,1,0.668
3,Optim,Trial,16,34,left,left,1,0.511
3,Optim,Trial,16,35,left,left,1,0.702
3,Optim,Trial,16,36,right,right,1,0.675
3,Optim,Trial,16,37,left,left,1,0.79
3,Optim,Trial,16,38,left,left,1,0.797
3,Optim,Trial,16,39,right,right,1,0.627
3,Optim,Trial,16,40,right,right,1,0.566
3,Optim,Trial,17,1,right,right,1,0.794
3,Optim,Trial,17,2,right,right,1,0.527
3,Optim,Trial,17,3,left,left,1,0.639
3,Optim,Trial,17,4,left,right,0,-0.506
3,Optim,Trial,17,5,left,left,1,0.582
3,Optim,Trial,17,6,left,left,1,0.503
3,Optim,Trial,17,7,right,right,1,0.43
3,Optim,Trial,17,8,right,right,1,0.691
3,Optim,Trial,17,9,right,right,1,0.431
3,Optim,Trial,17,10,left,right,0,-0.524
3,Optim,Trial,17,11,left,left,1,0.641
3,Optim,Trial,17,12,right,right,1,0.5
3,Optim,Trial,17,13,left,left,1,0.754
3,Optim,Trial,17,14,right,right,1,0.456
3,Optim,Trial,17,15,right,right,1,0.942
3,Optim,Trial,17,16,left,left,1,0.616
3,Optim,Trial,17,17,right,right,1,0.658
3,Optim,Trial,17,18,right,right,1,0.486
3,Optim,Trial,17,19,right,right,1,0.892
3,Optim,Trial,17,20,left,left,1,0.67
3,Optim,Trial,17,21,right,right,1,1.361
3,Optim,Trial,17,22,right,right,1,1.294
3,Optim,Trial,17,23,right,right,1,0.673
3,Optim,Trial,17,24,right,right,1,0.605
3,Optim,Trial,17,25,right,right,1,0.558
3,Optim,Trial,17,26,right,right,1,0.639
3,Optim,Trial,17,27,left,left,1,0.761
3,Optim,Trial,17,28,left,left,1,0.927
3,Optim,Trial,17,29,right,right,1,0.617
3,Optim,Trial,17,30,left,right,0,-0.603
3,Optim,Trial,17,31,left,left,1,0.665
3,Optim,Trial,17,32,left,left,1,0.684
3,Optim,Trial,17,33,right,right,1,0.632
3,Optim,Trial,17,34,left,left,1,1.226
3,Optim,Trial,17,35,left,left,1,1.212
3,Optim,Trial,17,36,left,left,1,0.573
3,Optim,Trial,17,37,left,left,1,0.597
3,Optim,Trial,17,38,left,right,0,-0.551
3,Optim,Trial,17,39,left,left,1,0.692
3,Optim,Trial,17,40,right,left,0,-0.472
3,Optim,Trial,18,1,left,left,1,0.75
3,Optim,Trial,18,2,right,left,0,-0.404
3,Optim,Trial,18,3,left,left,1,0.501
3,Optim,Trial,18,4,left,right,0,-0.372
3,Optim,Trial,18,5,right,right,1,0.461
3,Optim,Trial,18,6,right,right,1,0.547
3,Optim,Trial,18,7,right,right,1,0.539
3,Optim,Trial,18,8,right,right,1,0.483
3,Optim,Trial,18,9,right,left,0,-0.442
3,Optim,Trial,18,10,right,right,1,0.549
3,Optim,Trial,18,11,left,left,1,0.557
3,Optim,Trial,18,12,right,right,1,0.869
3,Optim,Trial,18,13,right,right,1,1.518
3,Optim,Trial,18,14,left,left,1,0.543
3,Optim,Trial,18,15,left,left,1,0.687
3,Optim,Trial,18,16,left,left,1,0.483
3,Optim,Trial,18,17,left,right,0,-1.106
3,Optim,Trial,18,18,left,left,1,0.701
3,Optim,Trial,18,19,left,right,0,-0.657
3,Optim,Trial,18,20,left,left,1,0.569
3,Optim,Trial,18,21,left,left,1,0.466
3,Optim,Trial,18,22,right,left,0,-0.336
3,Optim,Trial,18,23,left,left,1,0.519
3,Optim,Trial,18,24,left,left,1,0.51
3,Optim,Trial,18,25,right,left,0,-0.382
3,Optim,Trial,18,26,left,left,1,0.661
3,Optim,Trial,18,27,left,right,0,-0.594
3,Optim,Trial,18,28,left,left,1,1.593
3,Optim,Trial,18,29,right,right,1,0.611
3,Optim,Trial,18,30,right,right,1,0.621
3,Optim,Trial,18,31,right,right,1,0.623
3,Optim,Trial,18,32,right,left,0,-0.441
3,Optim,Trial,18,33,right,right,1,0.523
3,Optim,Trial,18,34,left,right,0,-2.179
3,Optim,Trial,18,35,right,right,1,0.682
3,Optim,Trial,18,36,right,right,1,0.645
3,Optim,Trial,18,37,left,left,1,0.736
3,Optim,Trial,18,38,left,left,1,0.573
3,Optim,Trial,18,39,right,right,1,0.558
3,Optim,Trial,18,40,right,right,1,0.91
3,Optim,Trial,19,1,right,right,1,0.932
3,Optim,Trial,19,2,right,right,1,0.766
3,Optim,Trial,19,3,left,left,1,0.5
3,Optim,Trial,19,4,right,right,1,0.467
3,Optim,Trial,19,5,right,right,1,0.433
3,Optim,Trial,19,6,left,left,1,0.518
3,Optim,Trial,19,7,right,left,0,-0.478
3,Optim,Trial,19,8,left,left,1,0.689
3,Optim,Trial,19,9,right,right,1,0.517
3,Optim,Trial,19,10,left,left,1,0.525
3,Optim,Trial,19,11,right,right,1,0.805
3,Optim,Trial,19,12,left,left,1,0.835
3,Optim,Trial,19,13,right,right,1,0.395
3,Optim,Trial,19,14,left,left,1,0.423
3,Optim,Trial,19,15,left,left,1,0.708
3,Optim,Trial,19,16,left,left,1,0.672
3,Optim,Trial,19,17,left,right,0,-0.476
3,Optim,Trial,19,18,right,right,1,0.574
3,Optim,Trial,19,19,right,right,1,0.599
3,Optim,Trial,19,20,right,right,1,0.553
3,Optim,Trial,19,21,right,left,0,-0.594
3,Optim,Trial,19,22,right,left,0,-0.76
3,Optim,Trial,19,23,left,left,1,0.682
3,Optim,Trial,19,24,right,left,0,-0.677
3,Optim,Trial,19,25,left,left,1,0.678
3,Optim,Trial,19,26,right,left,0,-0.553
3,Optim,Trial,19,27,right,right,1,0.495
3,Optim,Trial,19,28,left,left,1,0.637
3,Optim,Trial,19,29,left,right,0,-0.6
3,Optim,Trial,19,30,right,right,1,0.534
3,Optim,Trial,19,31,left,left,1,0.478
3,Optim,Trial,19,32,right,right,1,0.381
3,Optim,Trial,19,33,left,left,1,0.329
3,Optim,Trial,19,34,right,right,1,0.283
3,Optim,Trial,19,35,left,left,1,0.269
3,Optim,Trial,19,36,left,right,0,-0.27
3,Optim,Trial,19,37,left,right,0,-0.348
3,Optim,Trial,19,38,left,right,0,-0.284
3,Optim,Trial,19,39,left,left,1,1.091
3,Optim,Trial,19,40,right,left,0,-0.777
3,Optim,Trial,20,1,right,right,1,1.647
3,Optim,Trial,20,2,right,right,1,0.468
3,Optim,Trial,20,3,left,right,0,-0.37
3,Optim,Trial,20,4,left,left,1,0.858
3,Optim,Trial,20,5,left,right,0,-0.483
3,Optim,Trial,20,6,left,left,1,0.693
3,Optim,Trial,20,7,right,right,1,0.793
3,Optim,Trial,20,8,right,right,1,0.591
3,Optim,Trial,20,9,right,right,1,0.56
3,Optim,Trial,20,10,right,right,1,0.849
3,Optim,Trial,20,11,left,left,1,1.049
3,Optim,Trial,20,12,left,left,1,0.638
3,Optim,Trial,20,13,right,right,1,0.576
3,Optim,Trial,20,14,right,right,1,0.385
3,Optim,Trial,20,15,right,right,1,0.461
3,Optim,Trial,20,16,left,right,0,-0.371
3,Optim,Trial,20,17,right,right,1,0.395
3,Optim,Trial,20,18,left,left,1,0.463
3,Optim,Trial,20,19,right,right,1,0.381
3,Optim,Trial,20,20,left,left,1,0.433
3,Optim,Trial,20,21,left,right,0,-0.287
3,Optim,Trial,20,22,right,right,1,0.637
3,Optim,Trial,20,23,right,right,1,0.584
3,Optim,Trial,20,24,right,left,0,-0.945
3,Optim,Trial,20,25,left,left,1,1.28
3,Optim,Trial,20,26,left,right,0,-1.1
3,Optim,Trial,20,27,left,right,0,-0.776
3,Optim,Trial,20,28,left,right,0,-0.37
3,Optim,Trial,20,29,left,right,0,-0.499
3,Optim,Trial,20,30,right,right,1,0.343
3,Optim,Trial,20,31,right,left,0,-0.354
3,Optim,Trial,20,32,right,right,1,0.906
3,Optim,Trial,20,33,left,left,1,0.756
3,Optim,Trial,20,34,left,right,0,-0.633
3,Optim,Trial,20,35,left,left,1,1.185
3,Optim,Trial,20,36,right,right,1,0.601
3,Optim,Trial,20,37,right,left,0,-0.371
3,Optim,Trial,20,38,left,left,1,1.683
3,Optim,Trial,20,39,left,right,0,-0.495
3,Optim,Trial,20,40,right,right,1,0.514
3,Optim,Trial,21,1,left,left,1,1.207
3,Optim,Trial,21,2,right,right,1,0.584
3,Optim,Trial,21,3,left,left,1,0.417
3,Optim,Trial,21,4,right,right,1,0.382
3,Optim,Trial,21,5,left,left,1,0.322
3,Optim,Trial,21,6,right,right,1,0.324
3,Optim,Trial,21,7,left,left,1,0.35
3,Optim,Trial,21,8,right,right,1,0.305
3,Optim,Trial,21,9,left,left,1,0.276
3,Optim,Trial,21,10,left,right,0,-0.277
3,Optim,Trial,21,11,right,right,1,0.619
3,Optim,Trial,21,12,left,left,1,0.685
3,Optim,Trial,21,13,left,right,0,-0.552
3,Optim,Trial,21,14,right,right,1,0.75
3,Optim,Trial,21,15,right,right,1,0.723
3,Optim,Trial,21,16,right,right,1,0.632
3,Optim,Trial,21,17,right,right,1,0.586
3,Optim,Trial,21,18,right,right,1,0.532
3,Optim,Trial,21,19,left,right,0,-0.404
3,Optim,Trial,21,20,right,right,1,0.421
3,Optim,Trial,21,21,left,right,0,-0.45
3,Optim,Trial,21,22,right,right,1,0.541
3,Optim,Trial,21,23,left,left,1,0.829
3,Optim,Trial,21,24,left,left,1,0.604
3,Optim,Trial,21,25,left,right,0,-0.79
3,Optim,Trial,21,26,left,right,0,-0.625
3,Optim,Trial,21,27,right,right,1,2.576
3,Optim,Trial,21,28,right,left,0,-0.588
3,Optim,Trial,21,29,right,right,1,0.762
3,Optim,Trial,21,30,right,right,1,0.495
3,Optim,Trial,21,31,left,right,0,-0.422
3,Optim,Trial,21,32,left,left,1,0.568
3,Optim,Trial,21,33,left,right,0,-0.585
3,Optim,Trial,21,34,left,right,0,-0.422
3,Optim,Trial,21,35,left,left,1,1.169
3,Optim,Trial,21,36,right,right,1,0.617
3,Optim,Trial,21,37,right,right,1,0.587
3,Optim,Trial,21,38,right,left,0,-0.804
3,Optim,Trial,21,39,right,tooFast,2,-0.24
3,Optim,Trial,21,40,left,right,0,-0.436
3,Optim,Trial,22,1,right,right,1,0.872
3,Optim,Trial,22,2,left,left,1,0.665
3,Optim,Trial,22,3,left,right,0,-0.548
3,Optim,Trial,22,4,right,right,1,0.521
3,Optim,Trial,22,5,right,right,1,0.585
3,Optim,Trial,22,6,left,left,1,0.946
3,Optim,Trial,22,7,left,left,1,0.708
3,Optim,Trial,22,8,left,left,1,1.353
3,Optim,Trial,22,9,right,right,1,0.413
3,Optim,Trial,22,10,left,left,1,0.378
3,Optim,Trial,22,11,left,left,1,0.622
3,Optim,Trial,22,12,left,right,0,-0.544
3,Optim,Trial,22,13,left,left,1,0.653
3,Optim,Trial,22,14,left,left,1,1.024
3,Optim,Trial,22,15,left,left,1,0.668
3,Optim,Trial,22,16,left,right,0,-0.695
3,Optim,Trial,22,17,left,left,1,0.927
3,Optim,Trial,22,18,left,left,1,0.401
3,Optim,Trial,22,19,right,left,0,-0.309
3,Optim,Trial,22,20,right,right,1,0.716
3,Optim,Trial,22,21,right,right,1,0.841
3,Optim,Trial,22,22,left,left,1,0.624
3,Optim,Trial,22,23,right,right,1,0.795
3,Optim,Trial,22,24,right,right,1,0.666
3,Optim,Trial,22,25,right,right,1,0.605
3,Optim,Trial,22,26,right,right,1,0.502
3,Optim,Trial,22,27,right,right,1,0.534
3,Optim,Trial,22,28,right,right,1,0.542
3,Optim,Trial,22,29,right,right,1,0.422
3,Optim,Trial,22,30,right,right,1,0.395
3,Optim,Trial,22,31,right,right,1,0.423
3,Optim,Trial,22,32,right,right,1,0.404
3,Optim,Trial,22,33,left,left,1,0.641
3,Optim,Trial,22,34,left,left,1,0.708
3,Optim,Trial,22,35,left,right,0,-0.552
3,Optim,Trial,22,36,left,left,1,0.557
3,Optim,Trial,22,37,left,left,1,0.806
3,Optim,Trial,22,38,right,right,1,0.525
3,Optim,Trial,22,39,right,left,0,-0.5
3,Optim,Trial,22,40,right,right,1,0.544
3,Optim,Trial,23,1,left,left,1,0.818
3,Optim,Trial,23,2,left,left,1,0.489
3,Optim,Trial,23,3,right,right,1,0.848
3,Optim,Trial,23,4,right,right,1,0.528
3,Optim,Trial,23,5,left,left,1,0.592
3,Optim,Trial,23,6,left,left,1,0.529
3,Optim,Trial,23,7,right,left,0,-0.464
3,Optim,Trial,23,8,right,right,1,0.571
3,Optim,Trial,23,9,left,left,1,0.492
3,Optim,Trial,23,10,right,right,1,0.458
3,Optim,Trial,23,11,left,left,1,0.392
3,Optim,Trial,23,12,left,left,1,0.484
3,Optim,Trial,23,13,right,right,1,0.555
3,Optim,Trial,23,14,left,left,1,0.867
3,Optim,Trial,23,15,right,right,1,0.844
3,Optim,Trial,23,16,right,right,1,0.58
3,Optim,Trial,23,17,right,right,1,0.509
3,Optim,Trial,23,18,right,right,1,0.516
3,Optim,Trial,23,19,right,right,1,0.372
3,Optim,Trial,23,20,left,right,0,-0.344
3,Optim,Trial,23,21,right,right,1,0.384
3,Optim,Trial,23,22,left,left,1,0.62
3,Optim,Trial,23,23,right,right,1,0.542
3,Optim,Trial,23,24,left,left,1,0.638
3,Optim,Trial,23,25,left,right,0,-0.391
3,Optim,Trial,23,26,left,right,0,-0.641
3,Optim,Trial,23,27,left,left,1,0.76
3,Optim,Trial,23,28,right,right,1,0.662
3,Optim,Trial,23,29,right,right,1,0.633
3,Optim,Trial,23,30,right,right,1,0.547
3,Optim,Trial,23,31,right,right,1,0.66
3,Optim,Trial,23,32,left,right,0,-0.383
3,Optim,Trial,23,33,left,right,0,-0.608
3,Optim,Trial,23,34,right,right,1,0.494
3,Optim,Trial,23,35,left,left,1,0.589
3,Optim,Trial,23,36,left,left,1,0.742
3,Optim,Trial,23,37,right,right,1,0.468
3,Optim,Trial,23,38,right,right,1,0.81
3,Optim,Trial,23,39,left,right,0,-0.544
3,Optim,Trial,23,40,left,left,1,0.445
3,Optim,Trial,24,1,left,left,1,1.645
3,Optim,Trial,24,2,left,right,0,-0.538
3,Optim,Trial,24,3,left,right,0,-0.534
3,Optim,Trial,24,4,left,right,0,-0.539
3,Optim,Trial,24,5,right,right,1,1.001
3,Optim,Trial,24,6,left,left,1,0.876
